Sub	Run	Trial	AllNew	PriorPay	PriorObjNaN	ObjA	ObjB	Delay	Pay	RT	Resp	ChooseOld	ChosenSide	PriorChosenSide	ChosenObj
1	1	1	1	NaN	0	361	481	NaN	0.75	1873.74804075807	j	NaN	1	NaN	481
1	1	2	1	NaN	0	362	482	NaN	0.75	1645.93696594238	j	NaN	1	NaN	362
1	1	3	1	NaN	0	363	483	NaN	1	1152.95460354537	k	NaN	2	NaN	363
1	1	4	1	NaN	0	364	484	NaN	0	1553.94157674164	j	NaN	1	NaN	484
1	1	5	1	NaN	0	365	485	NaN	1	1104.56858668476	k	NaN	2	NaN	485
1	1	6	1	NaN	0	366	486	NaN	0.75	1168.64568181336	j	NaN	1	NaN	486
1	1	7	1	NaN	0	367	487	NaN	0	1081.16130996495	k	NaN	2	NaN	367
1	1	8	1	NaN	0	368	488	NaN	1	1047.67672158778	k	NaN	2	NaN	488
1	1	9	0	0.75	0	369	481	8	NaN	NaN	NaN	NaN	NaN	1	NaN
1	1	10	0	0.75	0	370	362	8	0.75	987.138488329947	k	1	2	1	362
1	1	11	0	1	0	371	363	8	1	953.265842050314	j	1	1	2	363
1	1	12	0	0	0	372	484	8	0.75	1783.08998793364	k	0	2	1	372
1	1	13	1	NaN	0	373	489	NaN	0.5	1367.91458167136	k	NaN	2	NaN	489
1	1	14	1	NaN	0	374	490	NaN	0.5	1613.6890668422	j	NaN	1	NaN	374
1	1	15	1	NaN	0	375	491	NaN	0.25	1116.66438914835	j	NaN	1	NaN	491
1	1	16	0	1	0	376	485	11	1	1929.81304042041	j	1	1	2	485
1	1	17	1	NaN	0	377	492	NaN	1	1267.06675998867	k	NaN	2	NaN	492
1	1	18	0	0	0	378	367	11	0.75	2113.86326514184	j	0	1	2	378
1	1	19	1	NaN	0	379	493	NaN	0.25	1330.26377763599	j	NaN	1	NaN	493
1	1	20	1	NaN	0	380	494	NaN	0.5	1462.492370978	k	NaN	2	NaN	494
1	1	21	0	0.75	0	381	486	15	0.75	1118.92530228943	k	1	2	1	486
1	1	22	1	NaN	0	382	495	NaN	0.75	1685.05594599992	j	NaN	1	NaN	382
1	1	23	0	1	0	383	488	15	0.75	1997.25289456546	j	0	1	2	383
1	1	24	1	NaN	0	384	496	NaN	0.25	1372.31450062245	k	NaN	2	NaN	496
1	1	25	0	0.5	0	385	489	12	0.5	1172.15259186924	j	1	1	2	489
1	1	26	1	NaN	0	386	497	NaN	0.5	1145.64569573849	j	NaN	1	NaN	386
1	1	27	0	0.5	0	387	374	13	0.5	1449.62070230395	j	1	1	1	374
1	1	28	1	NaN	0	388	498	NaN	0	1136.34512573481	k	NaN	2	NaN	388
1	1	29	0	0.25	0	389	491	14	0.25	1359.60337799042	k	0	2	1	389
1	1	30	0	0.25	0	390	493	11	0.25	1239.78246282786	k	1	2	1	493
1	1	31	1	NaN	0	391	499	NaN	1	1158.25340803713	k	NaN	2	NaN	499
1	1	32	1	NaN	0	392	500	NaN	0.5	1687.06309422851	j	NaN	1	NaN	500
1	1	33	0	1	0	393	492	16	1	1086.47925779223	k	1	2	2	492
1	1	34	0	0.5	0	394	494	14	0.5	2260.81590354443	j	1	1	2	494
1	1	35	1	NaN	0	395	501	NaN	0	1414.49710633606	j	NaN	1	NaN	501
1	1	36	0	0.75	0	396	382	14	0.75	1429.26021758467	k	1	2	1	382
1	1	37	1	NaN	0	397	502	NaN	0.75	2123.55809286237	j	NaN	1	NaN	397
1	1	38	0	0.25	0	398	496	14	1	2021.51073049754	k	0	2	2	398
1	1	39	1	NaN	0	399	503	NaN	1	1619.53020934016	k	NaN	2	NaN	399
1	1	40	1	NaN	0	400	504	NaN	0	1549.29572530091	j	NaN	1	NaN	504
1	1	41	0	1	0	401	499	10	1	1563.42407129705	k	1	2	2	499
1	1	42	0	0	0	402	388	14	0.25	1994.00428216904	j	0	1	2	402
1	1	43	0	0.5	0	403	386	17	0	1777.4571152404	k	0	2	1	403
1	1	44	1	NaN	0	404	505	NaN	0.5	1379.38392255455	k	NaN	2	NaN	404
1	1	45	0	0	0	405	501	10	0	2280.53914383054	j	1	1	1	501
1	1	46	0	0.5	0	406	500	14	0.5	1143.91159918159	j	1	1	1	500
1	1	47	1	NaN	0	407	506	NaN	0.25	1097.03738428652	j	NaN	1	NaN	407
1	1	48	1	NaN	0	408	507	NaN	0	1366.87103379518	j	NaN	1	NaN	408
1	1	49	1	NaN	0	409	508	NaN	1	1422.16891609132	k	NaN	2	NaN	508
1	1	50	0	1	0	410	399	11	1	1781.58147726208	j	1	1	2	399
1	1	51	0	0.75	0	411	397	14	0.75	1710.38192790002	j	1	1	1	397
1	1	52	0	0	0	412	504	12	0.5	2068.91272589564	j	0	1	1	412
1	1	53	0	0.5	0	413	404	9	NaN	NaN	NaN	NaN	NaN	2	NaN
1	1	54	1	NaN	0	414	509	NaN	0.25	1426.21503863484	k	NaN	2	NaN	414
1	1	55	0	0.25	0	415	407	8	0.25	1704.49278969318	j	1	1	1	407
1	1	56	1	NaN	0	416	510	NaN	0.25	880.939851514995	k	NaN	2	NaN	416
1	1	57	1	NaN	0	417	511	NaN	0.5	958.827069960535	j	NaN	1	NaN	511
1	1	58	0	0	0	418	408	10	0.25	1767.18478929251	k	0	2	1	418
1	1	59	1	NaN	0	419	512	NaN	0	1478.08596678078	j	NaN	1	NaN	512
1	1	60	1	NaN	0	420	513	NaN	0.25	1765.93421399593	j	NaN	1	NaN	513
1	1	61	0	1	0	421	508	12	0	1126.28724984825	j	0	1	2	421
1	1	62	1	NaN	0	422	514	NaN	0.75	1342.29969605803	j	NaN	1	NaN	422
1	1	63	0	0.25	0	423	414	9	0	1333.15323293209	j	0	1	2	423
1	1	64	1	NaN	0	424	515	NaN	0	813.270258717239	j	NaN	1	NaN	515
1	1	65	1	NaN	0	425	516	NaN	0.25	819.929376244545	j	NaN	1	NaN	425
1	1	66	1	NaN	0	426	517	NaN	0.25	1124.7664000839	j	NaN	1	NaN	517
1	1	67	0	0.25	0	427	416	11	0.25	738.772553391755	j	1	1	2	416
1	1	68	0	0.5	0	428	511	11	0.5	1386.48833055049	k	1	2	1	511
1	1	69	0	0	0	429	512	10	1	1089.12871405482	j	0	1	1	429
1	1	70	1	NaN	0	430	518	NaN	1	1106.21584858745	j	NaN	1	NaN	430
1	1	71	0	0.25	0	431	513	11	0.25	1944.25142090768	k	1	2	1	513
1	1	72	1	NaN	0	432	519	NaN	0.5	1118.98062285036	j	NaN	1	NaN	432
1	1	73	1	NaN	0	433	520	NaN	1	1071.85293734074	j	NaN	1	NaN	520
1	1	74	0	0.75	0	434	422	12	0.75	1088.51517178118	j	1	1	1	422
1	1	75	0	0	0	435	515	11	0	1711.78424544632	k	1	2	1	515
1	1	76	1	NaN	0	436	521	NaN	0.5	990.339091047645	j	NaN	1	NaN	521
1	1	77	1	NaN	0	437	522	NaN	0.75	893.789573572576	j	NaN	1	NaN	437
1	1	78	1	NaN	0	438	523	NaN	0.5	884.60685685277	j	NaN	1	NaN	438
1	1	79	0	0.25	0	439	425	14	0.75	1556.57303333282	k	0	2	1	439
1	1	80	1	NaN	0	440	524	NaN	0.75	940.137363038957	j	NaN	1	NaN	440
1	1	81	0	0.25	0	441	517	15	0.25	1651.94432158023	k	1	2	1	517
1	1	82	1	NaN	0	442	525	NaN	0.75	1016.67208690196	j	NaN	1	NaN	442
1	1	83	0	1	0	443	430	13	0	1025.45516099781	j	0	1	1	443
1	1	84	0	0.5	0	444	432	12	1	1640.15868492424	k	0	2	1	444
1	1	85	1	NaN	0	445	526	NaN	0	1301.62845738232	j	NaN	1	NaN	445
1	1	86	1	NaN	0	446	527	NaN	0	1413.36116287857	j	NaN	1	NaN	527
1	1	87	0	0.5	0	447	521	11	1	980.098420754075	j	0	1	1	447
1	1	88	0	1	0	448	520	15	1	1858.66381507367	k	1	2	1	520
1	1	89	0	0.75	0	449	437	12	0.25	1648.91507849097	j	0	1	1	449
1	1	90	1	NaN	0	450	528	NaN	0.5	976.208545267582	j	NaN	1	NaN	528
1	2	1	1	NaN	0	1	121	NaN	0.25	1180.62614928931	j	NaN	1	NaN	1
1	2	2	1	NaN	0	2	122	NaN	0	1010.38768142462	j	NaN	1	NaN	122
1	2	3	1	NaN	0	3	123	NaN	0	923.377096652985	j	NaN	1	NaN	3
1	2	4	1	NaN	0	4	124	NaN	0	1195.38964889944	j	NaN	1	NaN	124
1	2	5	1	NaN	0	5	125	NaN	0.5	873.623070307076	j	NaN	1	NaN	125
1	2	6	1	NaN	0	6	126	NaN	0.75	1431.7665733397	k	NaN	2	NaN	126
1	2	7	1	NaN	0	7	127	NaN	0.75	1119.76880487055	j	NaN	1	NaN	7
1	2	8	1	NaN	0	8	128	NaN	0.5	1311.21590733528	j	NaN	1	NaN	128
1	2	9	0	0.25	0	9	1	8	0.5	1495.3268636018	j	0	1	1	9
1	2	10	1	NaN	0	10	129	NaN	0.5	1108.83830953389	j	NaN	1	NaN	10
1	2	11	0	0	0	11	122	9	1	1043.24343148619	j	0	1	1	11
1	2	12	0	0	0	12	3	9	0.25	1187.11516261101	j	0	1	1	12
1	2	13	0	0	0	13	124	9	0.75	1130.45815285295	j	0	1	1	13
1	2	14	1	NaN	0	14	130	NaN	0.75	1090.14949202538	j	NaN	1	NaN	130
1	2	15	0	0.5	0	15	125	10	0.5	2163.00723329186	k	0	2	1	15
1	2	16	0	0.75	0	16	126	10	0.75	1010.35910286009	k	1	2	2	126
1	2	17	0	0.75	0	17	7	10	NaN	NaN	NaN	NaN	NaN	1	NaN
1	2	18	1	NaN	0	18	131	NaN	0	1171.82287480682	j	NaN	1	NaN	18
1	2	19	0	0.5	0	19	128	11	0.75	849.897955544293	j	0	1	1	19
1	2	20	1	NaN	0	20	132	NaN	1	1259.1123143211	k	NaN	2	NaN	20
1	2	21	0	0.5	0	21	10	11	0.75	1313.26794344932	k	0	2	1	21
1	2	22	1	NaN	0	22	133	NaN	0.75	1034.04939454049	k	NaN	2	NaN	22
1	2	23	1	NaN	0	23	134	NaN	1	1021.89640887082	k	NaN	2	NaN	23
1	2	24	0	0.75	0	24	130	10	0.5	2021.14914916456	k	0	2	1	24
1	2	25	1	NaN	0	25	135	NaN	0.25	1235.59605423361	j	NaN	1	NaN	25
1	2	26	0	0	0	26	18	8	0.75	1661.53857670724	k	0	2	1	26
1	2	27	0	1	0	27	20	7	1	771.971870213747	j	1	1	2	20
1	2	28	1	NaN	0	28	136	NaN	0.5	1058.4832392633	k	NaN	2	NaN	28
1	2	29	0	0.75	0	29	22	7	0.75	1832.15807005763	j	1	1	2	22
1	2	30	1	NaN	0	30	137	NaN	0.5	1039.85689114779	k	NaN	2	NaN	30
1	2	31	0	1	0	31	23	8	1	1100.39176326245	k	1	2	2	23
1	2	32	1	NaN	0	32	138	NaN	0.25	988.452199846506	k	NaN	2	NaN	32
1	2	33	0	0.25	0	33	25	8	NaN	NaN	NaN	NaN	NaN	1	NaN
1	2	34	1	NaN	0	34	139	NaN	0.75	958.093078806996	j	NaN	1	NaN	34
1	2	35	0	0.5	0	35	28	7	1	798.527996987104	j	0	1	2	35
1	2	36	1	NaN	0	36	140	NaN	0.25	956.924520432949	k	NaN	2	NaN	140
1	2	37	0	0.5	0	37	30	7	0.5	1458.46732333302	j	1	1	2	30
1	2	38	1	NaN	0	38	141	NaN	1	1048.52184839547	k	NaN	2	NaN	141
1	2	39	0	0.25	0	39	32	7	0.75	1127.1239630878	k	0	2	2	39
1	2	40	1	NaN	0	40	142	NaN	0.5	1229.30299583822	k	NaN	2	NaN	142
1	2	41	0	0.75	0	41	34	7	0.25	1701.20206661522	j	0	1	1	41
1	2	42	1	NaN	0	42	143	NaN	0.75	884.122657589614	j	NaN	1	NaN	143
1	2	43	1	NaN	0	43	144	NaN	1	1410.50782427192	j	NaN	1	NaN	144
1	2	44	0	0.25	0	44	140	8	NaN	NaN	NaN	NaN	NaN	2	NaN
1	2	45	0	1	0	45	141	7	1	845.171446911991	k	1	2	2	141
1	2	46	1	NaN	0	46	145	NaN	0	988.222359679639	k	NaN	2	NaN	145
1	2	47	1	NaN	0	47	146	NaN	0	1402.2876508534	j	NaN	1	NaN	146
1	2	48	0	0.5	0	48	142	8	0.5	952.989556826651	k	1	2	2	142
1	2	49	1	NaN	0	49	147	NaN	0.75	886.114961467683	j	NaN	1	NaN	49
1	2	50	0	0.75	0	50	143	8	0.75	669.255034998059	j	1	1	1	143
1	2	51	0	1	0	51	144	8	1	1098.42838067561	k	1	2	1	144
1	2	52	1	NaN	0	52	148	NaN	1	1016.76345895976	j	NaN	1	NaN	52
1	2	53	1	NaN	0	53	149	NaN	0.75	1031.59741591662	j	NaN	1	NaN	53
1	2	54	1	NaN	0	54	150	NaN	0.25	1133.20247270167	k	NaN	2	NaN	150
1	2	55	1	NaN	0	55	151	NaN	0.5	1233.83583128452	j	NaN	1	NaN	55
1	2	56	1	NaN	0	56	152	NaN	0.5	913.045239634812	j	NaN	1	NaN	56
1	2	57	0	0	0	57	145	11	0	1497.90828488767	j	0	1	2	57
1	2	58	1	NaN	0	58	153	NaN	0	1183.34468174726	j	NaN	1	NaN	153
1	2	59	0	0	0	59	146	12	0	806.600444950163	j	1	1	1	146
1	2	60	0	0.75	0	60	49	11	0	1613.51064778864	k	0	2	1	60
1	2	61	1	NaN	0	61	154	NaN	1	925.520883873105	k	NaN	2	NaN	154
1	2	62	1	NaN	0	62	155	NaN	1	1037.4990971759	k	NaN	2	NaN	62
1	2	63	0	0.75	0	63	53	10	0	1403.96364592016	k	0	2	1	63
1	2	64	1	NaN	0	64	156	NaN	0.25	1003.8435542956	k	NaN	2	NaN	156
1	2	65	0	1	0	65	52	13	1	931.13284278661	j	1	1	1	52
1	2	66	0	0.5	0	66	56	10	0.25	1212.45891228318	k	0	2	1	66
1	2	67	1	NaN	0	67	157	NaN	0.5	953.63179128617	k	NaN	2	NaN	67
1	2	68	1	NaN	0	68	158	NaN	0.25	753.23539879173	k	NaN	2	NaN	158
1	2	69	0	0.25	0	69	150	15	0.25	984.66557264328	j	0	1	2	69
1	2	70	1	NaN	0	70	159	NaN	0.75	937.262106686831	j	NaN	1	NaN	159
1	2	71	0	1	0	71	154	10	1	1447.02199660242	j	1	1	2	154
1	2	72	0	0.5	0	72	55	17	0.5	2230.0754096359	j	1	1	1	55
1	2	73	0	0	0	73	153	15	0	1653.79547327757	j	0	1	1	73
1	2	74	0	1	0	74	62	12	0.5	844.709390774369	j	0	1	2	74
1	2	75	0	0.25	0	75	156	11	0.25	1181.88870511949	j	1	1	2	156
1	2	76	1	NaN	0	76	160	NaN	0	908.767621032894	k	NaN	2	NaN	160
1	2	77	0	0.5	0	77	67	10	0.5	1298.65047335625	k	0	2	2	77
1	2	78	1	NaN	0	78	161	NaN	0.75	1114.46508206427	k	NaN	2	NaN	78
1	2	79	0	0.25	0	79	158	11	0.75	977.116975001991	j	0	1	2	79
1	2	80	1	NaN	0	80	162	NaN	1	1192.64030270278	k	NaN	2	NaN	162
1	2	81	0	0.75	0	81	159	11	0.75	1391.61282032728	k	1	2	1	159
1	2	82	1	NaN	0	82	163	NaN	1	1349.78723432869	j	NaN	1	NaN	163
1	2	83	1	NaN	0	83	164	NaN	1	972.66998142004	j	NaN	1	NaN	83
1	2	84	1	NaN	0	84	165	NaN	1	1028.95574830472	k	NaN	2	NaN	165
1	2	85	0	0	0	85	160	9	0	938.456147909164	k	1	2	2	160
1	2	86	0	0.75	0	86	78	8	0.75	986.500586383045	k	1	2	2	78
1	2	87	1	NaN	0	87	166	NaN	0.5	929.638827219605	k	NaN	2	NaN	87
1	2	88	1	NaN	0	88	167	NaN	0.75	1095.72199452668	k	NaN	2	NaN	88
1	2	89	1	NaN	0	89	168	NaN	0.5	990.074975416064	k	NaN	2	NaN	168
1	2	90	1	NaN	0	90	169	NaN	0	1206.89790602773	j	NaN	1	NaN	169
2	1	1	1	NaN	0	361	481	NaN	0.25	2127.51373398351	j	NaN	1	NaN	481
2	1	2	1	NaN	0	362	482	NaN	0	1635.39488101378	j	NaN	1	NaN	482
2	1	3	1	NaN	0	363	483	NaN	0.5	2026.72380700824	k	NaN	2	NaN	483
2	1	4	1	NaN	0	364	484	NaN	0.25	1730.1934749994	k	NaN	2	NaN	484
2	1	5	1	NaN	0	365	485	NaN	0.25	2271.88943402143	j	NaN	1	NaN	485
2	1	6	1	NaN	0	366	486	NaN	0.25	1501.04545900831	k	NaN	2	NaN	366
2	1	7	1	NaN	0	367	487	NaN	0.75	1996.56920399866	j	NaN	1	NaN	487
2	1	8	1	NaN	0	368	488	NaN	0.75	1340.45168501325	k	NaN	2	NaN	488
2	1	9	0	0.25	0	369	481	8	0.75	1322.2590329824	k	0	2	1	369
2	1	10	0	0	0	370	482	8	NaN	NaN	NaN	NaN	NaN	1	NaN
2	1	11	0	0.5	0	371	483	8	0.5	1324.59705701331	j	1	1	2	483
2	1	12	0	0.25	0	372	484	8	0.25	1321.89077002113	k	1	2	2	484
2	1	13	1	NaN	0	373	489	NaN	0.5	2008.58012700337	j	NaN	1	NaN	373
2	1	14	1	NaN	0	374	490	NaN	0	1271.85067799292	j	NaN	1	NaN	374
2	1	15	1	NaN	0	375	491	NaN	1	1325.50382299814	k	NaN	2	NaN	491
2	1	16	0	0.25	0	376	485	11	0.25	1747.42907899781	k	1	2	1	485
2	1	17	1	NaN	0	377	492	NaN	0	2186.84134801151	k	NaN	2	NaN	492
2	1	18	0	0.75	0	378	487	11	0.75	1234.43323501851	k	1	2	1	487
2	1	19	1	NaN	0	379	493	NaN	0.75	2153.21346500423	j	NaN	1	NaN	493
2	1	20	1	NaN	0	380	494	NaN	0.25	1353.09704300016	j	NaN	1	NaN	494
2	1	21	0	0.25	0	381	366	15	0.25	1359.37573199044	k	1	2	2	366
2	1	22	1	NaN	0	382	495	NaN	1	1646.65974400123	j	NaN	1	NaN	382
2	1	23	0	0.75	0	383	488	15	0.75	1205.10734099662	j	1	1	2	488
2	1	24	1	NaN	0	384	496	NaN	1	1348.82772501442	k	NaN	2	NaN	496
2	1	25	0	0.5	0	385	373	12	0.5	1439.27151302341	j	1	1	1	373
2	1	26	1	NaN	0	386	497	NaN	0.75	1898.591175006	j	NaN	1	NaN	386
2	1	27	0	0	0	387	374	13	NaN	NaN	NaN	NaN	NaN	1	NaN
2	1	28	1	NaN	0	388	498	NaN	0	1980.92759001884	k	NaN	2	NaN	388
2	1	29	0	1	0	389	491	14	1	1133.35910599562	j	1	1	2	491
2	1	30	0	0.75	0	390	493	11	0.5	2059.24462998519	k	0	2	1	390
2	1	31	1	NaN	0	391	499	NaN	NaN	NaN	NaN	NaN	NaN	NaN	NaN
2	1	32	1	NaN	0	392	500	NaN	0.5	1690.90631802101	k	NaN	2	NaN	392
2	1	33	0	0	0	393	492	16	0.5	2174.85381700681	k	0	2	2	393
2	1	34	0	0.25	0	394	494	14	0.25	1644.13945499109	k	1	2	1	494
2	1	35	1	NaN	0	395	501	NaN	0.5	1253.67412198102	j	NaN	1	NaN	501
2	1	36	0	1	0	396	382	14	1	1900.56941099465	j	1	1	1	382
2	1	37	1	NaN	0	397	502	NaN	1	1459.98011398478	k	NaN	2	NaN	397
2	1	38	0	1	0	398	496	14	1	1410.94958200119	k	1	2	2	496
2	1	39	1	NaN	0	399	503	NaN	1	2319.55085200025	j	NaN	1	NaN	399
2	1	40	1	NaN	0	400	504	NaN	0.5	1303.74932597624	j	NaN	1	NaN	400
2	1	41	0	NaN	1	401	391	10	NaN	NaN	NaN	NaN	NaN	NaN	NaN
2	1	42	0	0	0	402	388	14	0	1980.04943400156	j	0	1	2	402
2	1	43	0	0.75	0	403	386	17	1	1580.49245399889	j	0	1	1	403
2	1	44	1	NaN	0	404	505	NaN	1	1585.53267401294	j	NaN	1	NaN	505
2	1	45	0	0.5	0	405	501	10	0.5	1144.49690800393	j	1	1	1	501
2	1	46	0	0.5	0	406	392	14	1	2093.75284300768	k	0	2	2	406
2	1	47	1	NaN	0	407	506	NaN	0.5	2014.09045798937	j	NaN	1	NaN	407
2	1	48	1	NaN	0	408	507	NaN	1	1560.68343299557	j	NaN	1	NaN	408
2	1	49	1	NaN	0	409	508	NaN	0.75	1461.84321100009	k	NaN	2	NaN	409
2	1	50	0	1	0	410	399	11	1	1148.6601580109	k	1	2	1	399
2	1	51	0	1	0	411	397	14	1	1203.98747400031	k	1	2	2	397
2	1	52	0	0.5	0	412	400	12	0.5	1354.60059100296	j	1	1	1	400
2	1	53	0	1	0	413	505	9	1	1346.45561099751	k	1	2	1	505
2	1	54	1	NaN	0	414	509	NaN	1	1440.47104101628	k	NaN	2	NaN	414
2	1	55	0	0.5	0	415	407	8	0.5	1503.64380300744	k	1	2	1	407
2	1	56	1	NaN	0	416	510	NaN	0.75	1679.08001100295	j	NaN	1	NaN	416
2	1	57	1	NaN	0	417	511	NaN	0.75	1461.59053800511	k	NaN	2	NaN	511
2	1	58	0	1	0	418	408	10	1	1788.92053599702	j	1	1	1	408
2	1	59	1	NaN	0	419	512	NaN	0	1188.40312500834	k	NaN	2	NaN	512
2	1	60	1	NaN	0	420	513	NaN	0.75	2369.34524402022	k	NaN	2	NaN	513
2	1	61	0	0.75	0	421	409	12	0.75	1226.64540199912	k	1	2	2	409
2	1	62	1	NaN	0	422	514	NaN	1	1976.20027197991	j	NaN	1	NaN	514
2	1	63	0	1	0	423	414	9	1	1406.83226002147	k	1	2	2	414
2	1	64	1	NaN	0	424	515	NaN	0.75	2173.2087440032	j	NaN	1	NaN	424
2	1	65	1	NaN	0	425	516	NaN	0.5	1997.86541200592	k	NaN	2	NaN	425
2	1	66	1	NaN	0	426	517	NaN	0.75	1541.59409197746	j	NaN	1	NaN	517
2	1	67	0	0.75	0	427	416	11	0.75	1868.21629700717	j	1	1	1	416
2	1	68	0	0.75	0	428	511	11	0.75	1290.86304700468	j	1	1	2	511
2	1	69	0	0	0	429	512	10	0	2353.00376100349	k	0	2	2	429
2	1	70	1	NaN	0	430	518	NaN	0	1346.06906701811	j	NaN	1	NaN	518
2	1	71	0	0.75	0	431	513	11	0.75	1287.60300399153	k	1	2	2	513
2	1	72	1	NaN	0	432	519	NaN	1	1406.12710599089	k	NaN	2	NaN	432
2	1	73	1	NaN	0	433	520	NaN	0.5	2164.09697500058	k	NaN	2	NaN	433
2	1	74	0	1	0	434	514	12	1	1237.7554079867	j	1	1	1	514
2	1	75	0	0.75	0	435	424	11	0.75	995.453629002441	k	1	2	1	424
2	1	76	1	NaN	0	436	521	NaN	0.25	1873.78859499586	k	NaN	2	NaN	521
2	1	77	1	NaN	0	437	522	NaN	0.25	1425.17940301332	k	NaN	2	NaN	437
2	1	78	1	NaN	0	438	523	NaN	0.5	1663.81566500058	k	NaN	2	NaN	523
2	1	79	0	0.5	0	439	425	14	0.5	2071.41603800119	j	1	1	2	425
2	1	80	1	NaN	0	440	524	NaN	0.5	1343.3551590133	k	NaN	2	NaN	440
2	1	81	0	0.75	0	441	517	15	0.75	1389.5179440151	j	1	1	1	517
2	1	82	1	NaN	0	442	525	NaN	NaN	NaN	NaN	NaN	NaN	NaN	NaN
2	1	83	0	0	0	443	518	13	0	1225.34071700647	k	1	2	1	518
2	1	84	0	1	0	444	432	12	1	1271.61579602398	j	1	1	2	432
2	1	85	1	NaN	0	445	526	NaN	0.25	1654.72768500331	j	NaN	1	NaN	445
2	1	86	1	NaN	0	446	527	NaN	0	1468.630895979	j	NaN	1	NaN	446
2	1	87	0	0.25	0	447	521	11	0.25	1650.8756520052	k	0	2	2	447
2	1	88	0	0.5	0	448	433	15	0.75	2018.90033701784	k	0	2	2	448
2	1	89	0	0.25	0	449	437	12	0.25	1449.59395800834	k	1	2	2	437
2	1	90	1	NaN	0	450	528	NaN	0	1080.05410400801	j	NaN	1	NaN	450
2	2	1	1	NaN	0	1	121	NaN	0.75	1825.47611100017	k	NaN	2	NaN	121
2	2	2	1	NaN	0	2	122	NaN	0.5	1632.14923697524	j	NaN	1	NaN	122
2	2	3	1	NaN	0	3	123	NaN	0.75	1560.85535700549	k	NaN	2	NaN	123
2	2	4	1	NaN	0	4	124	NaN	0	1122.33879999258	j	NaN	1	NaN	124
2	2	5	1	NaN	0	5	125	NaN	0.25	2150.09952298715	j	NaN	1	NaN	5
2	2	6	1	NaN	0	6	126	NaN	0.5	1110.88369501522	k	NaN	2	NaN	126
2	2	7	1	NaN	0	7	127	NaN	1	1168.60939800972	j	NaN	1	NaN	7
2	2	8	1	NaN	0	8	128	NaN	0.75	1588.88696599752	j	NaN	1	NaN	128
2	2	9	0	0.75	0	9	121	8	0.25	1411.17205598857	k	0	2	2	9
2	2	10	1	NaN	0	10	129	NaN	NaN	NaN	NaN	NaN	NaN	NaN	NaN
2	2	11	0	0.5	0	11	122	9	0.5	1535.72345699649	j	1	1	1	122
2	2	12	0	0.75	0	12	123	9	0.75	1416.04491099133	j	1	1	2	123
2	2	13	0	0	0	13	124	9	0	1189.60971201886	k	1	2	1	124
2	2	14	1	NaN	0	14	130	NaN	0.5	1837.7695849922	k	NaN	2	NaN	130
2	2	15	0	0.25	0	15	5	10	0.25	1622.44923500111	k	1	2	1	5
2	2	16	0	0.5	0	16	126	10	0.5	1540.69436699501	k	1	2	2	126
2	2	17	0	1	0	17	7	10	1	1476.7390670022	j	1	1	1	7
2	2	18	1	NaN	0	18	131	NaN	0.75	1690.38514100248	j	NaN	1	NaN	18
2	2	19	0	0.75	0	19	128	11	0.75	1439.50394401327	j	1	1	1	128
2	2	20	1	NaN	0	20	132	NaN	0.75	1248.65114601562	j	NaN	1	NaN	132
2	2	21	0	NaN	1	21	10	11	1	2168.91008199309	j	1	1	NaN	10
2	2	22	1	NaN	0	22	133	NaN	0.75	1919.10259900033	j	NaN	1	NaN	133
2	2	23	1	NaN	0	23	134	NaN	0.5	1560.40783398203	k	NaN	2	NaN	23
2	2	24	0	0.5	0	24	130	10	0.5	1295.5090799951	k	1	2	2	130
2	2	25	1	NaN	0	25	135	NaN	1	1229.67211800278	j	NaN	1	NaN	135
2	2	26	0	0.75	0	26	18	8	0.25	1316.97575098951	k	0	2	1	26
2	2	27	0	0.75	0	27	132	7	0.75	893.286314007128	j	1	1	1	132
2	2	28	1	NaN	0	28	136	NaN	0	1412.66087000258	j	NaN	1	NaN	136
2	2	29	0	0.75	0	29	133	7	0.75	1308.23955498636	k	1	2	1	133
2	2	30	1	NaN	0	30	137	NaN	0.5	1754.16857999517	j	NaN	1	NaN	30
2	2	31	0	0.5	0	31	23	8	0.5	1129.31842601392	j	1	1	2	23
2	2	32	1	NaN	0	32	138	NaN	0.75	1384.69149399316	j	NaN	1	NaN	32
2	2	33	0	1	0	33	135	8	1	1840.04036700935	j	1	1	1	135
2	2	34	1	NaN	0	34	139	NaN	0.5	2040.4547789949	k	NaN	2	NaN	34
2	2	35	0	0	0	35	136	7	0	1247.25718499394	j	1	1	1	136
2	2	36	1	NaN	0	36	140	NaN	NaN	NaN	NaN	NaN	NaN	NaN	NaN
2	2	37	0	0.5	0	37	30	7	0.5	960.272483003791	k	1	2	1	30
2	2	38	1	NaN	0	38	141	NaN	0.75	1239.41295000259	j	NaN	1	NaN	38
2	2	39	0	0.75	0	39	32	7	0.75	1224.3389840005	k	1	2	1	32
2	2	40	1	NaN	0	40	142	NaN	1	1238.09982699458	k	NaN	2	NaN	40
2	2	41	0	0.5	0	41	34	7	0.5	1533.2992960175	j	1	1	2	34
2	2	42	1	NaN	0	42	143	NaN	0.25	1494.00957202306	k	NaN	2	NaN	42
2	2	43	1	NaN	0	43	144	NaN	1	1564.11772998399	k	NaN	2	NaN	43
2	2	44	0	NaN	1	44	36	8	0	1180.16847097897	j	1	1	NaN	36
2	2	45	0	0.75	0	45	38	7	0.75	1361.70462300652	k	1	2	1	38
2	2	46	1	NaN	0	46	145	NaN	1	1657.18336199643	k	NaN	2	NaN	46
2	2	47	1	NaN	0	47	146	NaN	0	1198.99805099703	k	NaN	2	NaN	146
2	2	48	0	1	0	48	40	8	1	1703.44393901178	j	1	1	2	40
2	2	49	1	NaN	0	49	147	NaN	0.5	1460.43414002634	j	NaN	1	NaN	49
2	2	50	0	0.25	0	50	42	8	0.25	1737.96740800026	k	0	2	2	50
2	2	51	0	1	0	51	43	8	1	1531.40890001669	j	1	1	2	43
2	2	52	1	NaN	0	52	148	NaN	0	1529.42553398316	k	NaN	2	NaN	148
2	2	53	1	NaN	0	53	149	NaN	0.75	1233.16250799689	j	NaN	1	NaN	149
2	2	54	1	NaN	0	54	150	NaN	0.5	1768.26284499839	k	NaN	2	NaN	54
2	2	55	1	NaN	0	55	151	NaN	0.25	1333.53845300735	j	NaN	1	NaN	151
2	2	56	1	NaN	0	56	152	NaN	0.75	1261.68322798912	k	NaN	2	NaN	152
2	2	57	0	1	0	57	46	11	1	893.185485998401	k	1	2	2	46
2	2	58	1	NaN	0	58	153	NaN	0.75	1803.51899002562	j	NaN	1	NaN	58
2	2	59	0	0	0	59	146	12	0	1275.97109400085	j	1	1	2	146
2	2	60	0	0.5	0	60	49	11	0.5	851.372293021996	j	1	1	1	49
2	2	61	1	NaN	0	61	154	NaN	1	1739.23175199889	j	NaN	1	NaN	154
2	2	62	1	NaN	0	62	155	NaN	0.25	1624.94684499688	j	NaN	1	NaN	155
2	2	63	0	0.75	0	63	149	10	0.75	1152.78784799739	k	1	2	1	149
2	2	64	1	NaN	0	64	156	NaN	1	1680.41914698551	j	NaN	1	NaN	64
2	2	65	0	0	0	65	148	13	1	1015.85097098723	k	0	2	2	65
2	2	66	0	0.75	0	66	152	10	0.75	2175.50798799493	j	1	1	2	152
2	2	67	1	NaN	0	67	157	NaN	0.5	1990.39139898377	k	NaN	2	NaN	67
2	2	68	1	NaN	0	68	158	NaN	0.75	1798.16364397993	j	NaN	1	NaN	68
2	2	69	0	0.5	0	69	54	15	0.5	1682.90337498183	j	1	1	2	54
2	2	70	1	NaN	0	70	159	NaN	0.5	1778.66587499739	k	NaN	2	NaN	159
2	2	71	0	1	0	71	154	10	NaN	NaN	NaN	NaN	NaN	1	NaN
2	2	72	0	0.25	0	72	151	17	0.25	1382.1117740008	k	1	2	1	151
2	2	73	0	0.75	0	73	58	15	0.75	1230.17757001799	j	1	1	1	58
2	2	74	0	0.25	0	74	155	12	0.25	1622.07359401509	j	1	1	1	155
2	2	75	0	1	0	75	64	11	1	1494.33235498145	j	1	1	1	64
2	2	76	1	NaN	0	76	160	NaN	0	1684.23376200371	k	NaN	2	NaN	76
2	2	77	0	0.5	0	77	67	10	0.5	1171.78657700424	j	1	1	2	67
2	2	78	1	NaN	0	78	161	NaN	NaN	NaN	NaN	NaN	NaN	NaN	NaN
2	2	79	0	0.75	0	79	68	11	0.75	1157.29159998591	k	1	2	1	68
2	2	80	1	NaN	0	80	162	NaN	0	1453.80058899173	j	NaN	1	NaN	162
2	2	81	0	0.5	0	81	159	11	0	1237.46752497391	k	0	2	2	81
2	2	82	1	NaN	0	82	163	NaN	0	1821.74392300658	j	NaN	1	NaN	82
2	2	83	1	NaN	0	83	164	NaN	0	1868.26227401616	j	NaN	1	NaN	164
2	2	84	1	NaN	0	84	165	NaN	0.25	1259.9948529969	k	NaN	2	NaN	165
2	2	85	0	0	0	85	76	9	0.5	1652.00550798909	k	0	2	2	85
2	2	86	0	NaN	1	86	78	8	0.75	1539.49391900096	k	0	2	NaN	86
2	2	87	1	NaN	0	87	166	NaN	0.25	2210.40142001584	j	NaN	1	NaN	166
2	2	88	1	NaN	0	88	167	NaN	0.75	1328.88022201951	k	NaN	2	NaN	88
2	2	89	1	NaN	0	89	168	NaN	0.5	1464.56630100147	k	NaN	2	NaN	168
2	2	90	1	NaN	0	90	169	NaN	1	2097.27880300488	j	NaN	1	NaN	169
3	1	1	1	NaN	0	1	121	NaN	0.5	1884.84566798434	k	NaN	2	NaN	1
3	1	2	1	NaN	0	2	122	NaN	0.75	2114.02374802856	k	NaN	2	NaN	122
3	1	3	1	NaN	0	3	123	NaN	1	2266.61367097404	j	NaN	1	NaN	3
3	1	4	1	NaN	0	4	124	NaN	0.75	1922.97330399742	k	NaN	2	NaN	4
3	1	5	1	NaN	0	5	125	NaN	0.25	1969.96251301607	k	NaN	2	NaN	5
3	1	6	1	NaN	0	6	126	NaN	0.75	1385.75671898434	j	NaN	1	NaN	126
3	1	7	1	NaN	0	7	127	NaN	0	2072.18435098184	j	NaN	1	NaN	127
3	1	8	0	0.5	0	8	1	7	0.5	1937.20343202585	j	1	1	2	1
3	1	9	1	NaN	0	9	128	NaN	NaN	NaN	NaN	NaN	NaN	NaN	NaN
3	1	10	1	NaN	0	10	129	NaN	0.5	1405.35309899133	k	NaN	2	NaN	10
3	1	11	0	0.75	0	11	122	9	0.75	1805.4148730007	j	1	1	2	122
3	1	12	0	1	0	12	3	9	1	1221.95912100142	k	1	2	1	3
3	1	13	0	0.75	0	13	4	9	1	2301.57054000301	k	0	2	2	13
3	1	14	0	0.25	0	14	5	9	1	1231.58325901022	j	0	1	2	14
3	1	15	1	NaN	0	15	130	NaN	0.25	2341.30600997014	j	NaN	1	NaN	130
3	1	16	0	0.75	0	16	126	10	0.75	1821.62883202545	k	1	2	1	126
3	1	17	0	0	0	17	127	10	0.5	1364.57393597811	k	0	2	1	17
3	1	18	1	NaN	0	18	131	NaN	0	1604.22830103198	k	NaN	2	NaN	131
3	1	19	0	NaN	1	19	9	10	0	2300.4741310142	k	0	2	NaN	19
3	1	20	1	NaN	0	20	132	NaN	0.25	1380.06686198059	j	NaN	1	NaN	20
3	1	21	0	0.5	0	21	10	11	1	1819.78126103058	k	0	2	2	21
3	1	22	1	NaN	0	22	133	NaN	0.25	1396.5715370141	k	NaN	2	NaN	22
3	1	23	1	NaN	0	23	134	NaN	1	1794.99824898085	j	NaN	1	NaN	134
3	1	24	1	NaN	0	24	135	NaN	0.75	1946.9277850003	k	NaN	2	NaN	135
3	1	25	0	0.25	0	25	130	10	NaN	NaN	NaN	NaN	NaN	1	NaN
3	1	26	1	NaN	0	26	136	NaN	1	1437.17092799488	j	NaN	1	NaN	136
3	1	27	1	NaN	0	27	137	NaN	0.5	1301.36424000375	k	NaN	2	NaN	27
3	1	28	1	NaN	0	28	138	NaN	0.25	1237.71303100511	j	NaN	1	NaN	28
3	1	29	0	0	0	29	131	11	0.75	1677.46298399288	k	0	2	2	29
3	1	30	0	0.25	0	30	20	10	0.25	1580.31006698729	k	0	2	1	30
3	1	31	1	NaN	0	31	139	NaN	0.25	1509.24020801904	j	NaN	1	NaN	139
3	1	32	0	0.25	0	32	22	10	0.75	1140.49264905043	j	0	1	2	32
3	1	33	0	1	0	33	134	10	1	987.535855965689	k	1	2	1	134
3	1	34	0	0.75	0	34	135	10	0.25	1539.45526998723	k	0	2	2	34
3	1	35	1	NaN	0	35	140	NaN	0.75	1353.93289598869	j	NaN	1	NaN	35
3	1	36	1	NaN	0	36	141	NaN	0	850.879067962524	k	NaN	2	NaN	141
3	1	37	0	1	0	37	136	11	0	1945.95670304261	k	0	2	1	37
3	1	38	1	NaN	0	38	142	NaN	0.25	1064.8259089794	j	NaN	1	NaN	38
3	1	39	0	0.5	0	39	27	12	0.75	2144.34232801432	j	0	1	2	39
3	1	40	0	0.25	0	40	28	12	0.5	2145.51968203159	j	0	1	1	40
3	1	41	1	NaN	0	41	143	NaN	0.5	1632.27780000307	k	NaN	2	NaN	143
3	1	42	1	NaN	0	42	144	NaN	0	1808.16193600185	k	NaN	2	NaN	42
3	1	43	0	0.25	0	43	139	12	0.75	1087.46442297706	k	0	2	1	43
3	1	44	0	0.75	0	44	35	9	0.25	2016.46620302927	j	0	1	1	44
3	1	45	1	NaN	0	45	145	NaN	0.5	1304.64942299295	k	NaN	2	NaN	45
3	1	46	1	NaN	0	46	146	NaN	0.5	1166.29184503108	k	NaN	2	NaN	146
3	1	47	1	NaN	0	47	147	NaN	0	2039.2746719881	k	NaN	2	NaN	147
3	1	48	1	NaN	0	48	148	NaN	0	1502.72830203176	j	NaN	1	NaN	148
3	1	49	0	0	0	49	141	13	0.5	1510.52918698406	j	0	1	2	49
3	1	50	0	0.25	0	50	38	12	0.25	1743.82845003856	k	1	2	1	38
3	1	51	1	NaN	0	51	149	NaN	0.25	1798.81116497563	k	NaN	2	NaN	149
3	1	52	1	NaN	0	52	150	NaN	0.25	1520.34807397285	j	NaN	1	NaN	150
3	1	53	0	0.5	0	53	143	12	0.5	1918.34744799417	j	1	1	2	143
3	1	54	1	NaN	0	54	151	NaN	0.5	1591.14150196547	j	NaN	1	NaN	54
3	1	55	0	0	0	55	42	13	0.75	1982.82587900758	k	0	2	2	55
3	1	56	1	NaN	0	56	152	NaN	0	1900.65240196418	k	NaN	2	NaN	56
3	1	57	0	0.5	0	57	45	12	NaN	NaN	NaN	NaN	NaN	2	NaN
3	1	58	0	0	0	58	148	10	1	1481.0351759661	j	0	1	1	58
3	1	59	0	0	0	59	147	12	0.5	1209.60948895663	j	0	1	2	59
3	1	60	1	NaN	0	60	153	NaN	0	1489.38084300607	j	NaN	1	NaN	153
3	1	61	1	NaN	0	61	154	NaN	0	2185.50538097043	j	NaN	1	NaN	61
3	1	62	1	NaN	0	62	155	NaN	NaN	NaN	NaN	NaN	NaN	NaN	NaN
3	1	63	0	0.25	0	63	149	12	0.25	1469.4855120033	j	1	1	2	149
3	1	64	1	NaN	0	64	156	NaN	0.75	1492.23571101902	k	NaN	2	NaN	64
3	1	65	0	0.5	0	65	146	19	0.75	1732.81110299286	j	0	1	2	65
3	1	66	1	NaN	0	66	157	NaN	1	1170.84237100789	j	NaN	1	NaN	157
3	1	67	0	0.5	0	67	54	13	0.5	2282.11983200163	k	0	2	1	67
3	1	68	0	0	0	68	56	12	0.5	1090.64704499906	j	0	1	2	68
3	1	69	0	0.25	0	69	150	17	0.25	2177.70022299374	k	0	2	1	69
3	1	70	0	0	0	70	153	10	0.5	1594.66182504548	j	0	1	1	70
3	1	71	1	NaN	0	71	158	NaN	0.25	1521.67538000504	k	NaN	2	NaN	71
3	1	72	0	0	0	72	61	11	1	1609.53933699057	k	0	2	1	72
3	1	73	1	NaN	0	73	159	NaN	1	1319.80073504383	j	NaN	1	NaN	159
3	1	74	1	NaN	0	74	160	NaN	0.75	1903.95067003556	k	NaN	2	NaN	74
3	1	75	0	NaN	1	75	62	13	0.75	2103.26074401382	j	0	1	NaN	75
3	1	76	1	NaN	0	76	161	NaN	1	1279.46913096821	k	NaN	2	NaN	76
3	1	77	1	NaN	0	77	162	NaN	0.5	1663.05129299872	j	NaN	1	NaN	77
3	1	78	0	1	0	78	157	12	1	1304.28359098732	k	0	2	1	78
3	1	79	0	0.75	0	79	64	15	0.75	1286.30461602006	k	0	2	2	79
3	1	80	1	NaN	0	80	163	NaN	1	1582.51981402282	k	NaN	2	NaN	80
3	1	81	0	0.25	0	81	71	10	0.25	1478.87192497728	j	1	1	2	71
3	1	82	1	NaN	0	82	164	NaN	0	1639.50393797131	j	NaN	1	NaN	164
3	1	83	0	1	0	83	159	10	1	1029.83018400846	k	1	2	1	159
3	1	84	1	NaN	0	84	165	NaN	0.25	1102.84883499844	k	NaN	2	NaN	165
3	1	85	0	0.75	0	85	74	11	0.75	1694.35762002831	k	1	2	2	74
3	1	86	0	1	0	86	76	10	0.75	1533.90676603885	j	0	1	2	86
3	1	87	0	0.5	0	87	77	10	0.75	1732.39790002117	k	0	2	1	87
3	1	88	1	NaN	0	88	166	NaN	0	1813.06040595518	j	NaN	1	NaN	166
3	1	89	1	NaN	0	89	167	NaN	0.5	1940.11735502863	k	NaN	2	NaN	167
3	1	90	1	NaN	0	90	168	NaN	0	1731.80560802575	j	NaN	1	NaN	90
3	2	1	1	NaN	0	181	301	NaN	0	1725.8304010029	j	NaN	1	NaN	181
3	2	2	1	NaN	0	182	302	NaN	1	1556.85367499245	k	NaN	2	NaN	302
3	2	3	1	NaN	0	183	303	NaN	0	1699.05196799664	j	NaN	1	NaN	303
3	2	4	1	NaN	0	184	304	NaN	0.75	1498.11804201454	k	NaN	2	NaN	184
3	2	5	1	NaN	0	185	305	NaN	0.75	1483.35871100426	k	NaN	2	NaN	185
3	2	6	1	NaN	0	186	306	NaN	0.5	1954.89594800165	j	NaN	1	NaN	306
3	2	7	1	NaN	0	187	307	NaN	0	1538.74227701453	k	NaN	2	NaN	307
3	2	8	0	0	0	188	181	7	0	2057.3374319938	k	1	2	1	181
3	2	9	1	NaN	0	189	308	NaN	0.5	1832.62249903055	j	NaN	1	NaN	189
3	2	10	0	1	0	190	302	8	1	896.083593019284	k	1	2	2	302
3	2	11	1	NaN	0	191	309	NaN	0	1472.75723697385	k	NaN	2	NaN	191
3	2	12	0	0	0	192	303	9	NaN	NaN	NaN	NaN	NaN	1	NaN
3	2	13	0	0.75	0	193	184	9	0.75	1177.95359599404	k	1	2	2	184
3	2	14	1	NaN	0	194	310	NaN	0.75	1242.98952298705	j	NaN	1	NaN	194
3	2	15	0	0.75	0	195	185	10	0.75	1505.69035601802	j	0	1	2	195
3	2	16	1	NaN	0	196	311	NaN	0.25	1729.97868998209	k	NaN	2	NaN	196
3	2	17	0	0.5	0	197	306	11	0.5	2232.35856898827	j	1	1	1	306
3	2	18	0	0	0	198	307	11	1	984.6589040244	j	0	1	2	198
3	2	19	0	0.5	0	199	189	10	0	1376.53473101091	j	0	1	1	199
3	2	20	1	NaN	0	200	312	NaN	0.75	1401.57421195181	j	NaN	1	NaN	200
3	2	21	0	0	0	201	191	10	0.75	1680.19357399317	k	0	2	2	201
3	2	22	1	NaN	0	202	313	NaN	0.5	1831.39800099889	k	NaN	2	NaN	313
3	2	23	1	NaN	0	203	314	NaN	1	1631.31056999555	j	NaN	1	NaN	203
3	2	24	1	NaN	0	204	315	NaN	1	1798.81348297931	j	NaN	1	NaN	315
3	2	25	1	NaN	0	205	316	NaN	0.75	1622.41110397736	k	NaN	2	NaN	316
3	2	26	0	0.25	0	206	196	10	0.5	1150.01987299183	j	0	1	2	206
3	2	27	0	0.75	0	207	194	13	0.75	1750.4839830217	j	1	1	1	194
3	2	28	0	0.75	0	208	200	8	0.5	1207.09243998863	j	0	1	1	208
3	2	29	0	0.5	0	209	313	7	0.25	1126.40837201616	j	0	1	2	209
3	2	30	1	NaN	0	210	317	NaN	0.75	1958.27219297644	j	NaN	1	NaN	317
3	2	31	0	1	0	211	203	8	1	1022.34495198354	k	1	2	1	203
3	2	32	1	NaN	0	212	318	NaN	0	1518.17700400716	k	NaN	2	NaN	318
3	2	33	0	1	0	213	315	9	1	1221.30392800318	k	1	2	1	315
3	2	34	1	NaN	0	214	319	NaN	0.75	1868.63068299135	k	NaN	2	NaN	214
3	2	35	1	NaN	0	215	320	NaN	1	1523.50605500396	k	NaN	2	NaN	320
3	2	36	0	0.75	0	216	316	11	0.75	1131.72018900514	k	0	2	2	216
3	2	37	1	NaN	0	217	321	NaN	0.5	2314.65829897206	k	NaN	2	NaN	217
3	2	38	0	0.75	0	218	317	8	0.75	2258.65497702034	k	1	2	1	317
3	2	39	0	0	0	219	318	7	0.25	1226.10347997397	k	0	2	2	219
3	2	40	1	NaN	0	220	322	NaN	0.5	1946.16834499175	j	NaN	1	NaN	220
3	2	41	0	0.75	0	221	214	7	1	1911.62855701987	j	0	1	2	221
3	2	42	1	NaN	0	222	323	NaN	0.75	1448.66510503925	j	NaN	1	NaN	323
3	2	43	0	1	0	223	320	8	1	1248.40569199296	j	1	1	2	320
3	2	44	1	NaN	0	224	324	NaN	0	1215.81024100306	k	NaN	2	NaN	224
3	2	45	0	0.5	0	225	217	8	0.5	2216.65959898382	j	1	1	2	217
3	2	46	1	NaN	0	226	325	NaN	0.5	1318.86798795313	k	NaN	2	NaN	325
3	2	47	0	0.5	0	227	220	7	0.5	1646.48350997595	j	1	1	1	220
3	2	48	1	NaN	0	228	326	NaN	0.5	1333.84090900654	k	NaN	2	NaN	228
3	2	49	1	NaN	0	229	327	NaN	NaN	NaN	NaN	NaN	NaN	NaN	NaN
3	2	50	0	0.75	0	230	323	8	0.75	1274.00654298253	k	1	2	1	323
3	2	51	0	0	0	231	224	7	0.25	2074.49726999039	k	0	2	2	231
3	2	52	1	NaN	0	232	328	NaN	0.5	1802.05715104239	j	NaN	1	NaN	232
3	2	53	0	0.5	0	233	325	7	1	1377.71546596196	k	0	2	2	233
3	2	54	1	NaN	0	234	329	NaN	0	1648.68722297251	k	NaN	2	NaN	234
3	2	55	1	NaN	0	235	330	NaN	0.5	2145.71125700604	k	NaN	2	NaN	330
3	2	56	1	NaN	0	236	331	NaN	0	1520.64033300849	j	NaN	1	NaN	331
3	2	57	1	NaN	0	237	332	NaN	0.5	1233.09884400805	k	NaN	2	NaN	332
3	2	58	1	NaN	0	238	333	NaN	0.75	1792.2040100093	k	NaN	2	NaN	238
3	2	59	0	NaN	1	239	229	10	NaN	NaN	NaN	NaN	NaN	NaN	NaN
3	2	60	1	NaN	0	240	334	NaN	1	2124.90823998814	j	NaN	1	NaN	334
3	2	61	0	0.5	0	241	228	13	0.5	1516.6591629968	j	1	1	2	228
3	2	62	0	0.5	0	242	232	10	0.5	1460.56372398743	j	0	1	1	242
3	2	63	0	0	0	243	234	9	0	1852.447236015	j	0	1	2	243
3	2	64	0	0.5	0	244	330	9	0.75	1452.37207500031	j	0	1	2	244
3	2	65	1	NaN	0	245	335	NaN	0	1708.85087398347	k	NaN	2	NaN	335
3	2	66	0	0	0	246	331	10	1	2060.68224896444	j	0	1	1	246
3	2	67	1	NaN	0	247	336	NaN	0.5	1932.37182497978	k	NaN	2	NaN	336
3	2	68	0	0.75	0	248	238	10	0.75	1979.59842398996	k	1	2	2	238
3	2	69	0	0.5	0	249	332	12	1	1763.7912450009	k	0	2	2	249
3	2	70	1	NaN	0	250	337	NaN	1	1346.55603201827	k	NaN	2	NaN	337
3	2	71	0	1	0	251	334	11	0	1594.18550098781	j	0	1	1	251
3	2	72	1	NaN	0	252	338	NaN	0.5	2003.0569829978	k	NaN	2	NaN	252
3	2	73	1	NaN	0	253	339	NaN	1	1504.732609028	k	NaN	2	NaN	339
3	2	74	1	NaN	0	254	340	NaN	0.75	1209.99063801719	k	NaN	2	NaN	340
3	2	75	1	NaN	0	255	341	NaN	0	1625.04020100459	k	NaN	2	NaN	341
3	2	76	1	NaN	0	256	342	NaN	1	1529.31869297754	j	NaN	1	NaN	342
3	2	77	0	0	0	257	335	12	0	1793.02938497858	k	0	2	2	257
3	2	78	0	0.5	0	258	336	11	0.25	1671.88992601587	j	0	1	2	258
3	2	79	1	NaN	0	259	343	NaN	0.25	1710.8373970259	k	NaN	2	NaN	259
3	2	80	0	1	0	260	337	10	0.25	1558.38834901806	k	0	2	2	260
3	2	81	1	NaN	0	261	344	NaN	0.25	1422.00738098472	k	NaN	2	NaN	261
3	2	82	1	NaN	0	262	345	NaN	0.25	1758.1101040123	j	NaN	1	NaN	345
3	2	83	0	0.5	0	263	252	11	0.75	1286.14343103254	k	0	2	2	263
3	2	84	0	1	0	264	339	11	1	948.715251986869	j	1	1	2	339
3	2	85	0	0.75	0	265	340	11	0.75	2125.67041895818	j	1	1	2	340
3	2	86	0	1	0	266	342	10	1	1140.15275798738	j	1	1	1	342
3	2	87	0	0	0	267	341	12	0.25	1173.47280000104	j	0	1	2	267
3	2	88	1	NaN	0	268	346	NaN	0.5	2123.93175496254	k	NaN	2	NaN	268
3	2	89	0	0.25	0	269	259	10	0.25	2052.92314599501	j	1	1	2	259
3	2	90	1	NaN	0	270	347	NaN	0.75	1067.90028401883	k	NaN	2	NaN	347
4	1	1	1	NaN	0	1	121	NaN	0.25	1434.10890398081	j	NaN	1	NaN	1
4	1	2	1	NaN	0	2	122	NaN	0.75	974.252823041752	k	NaN	2	NaN	122
4	1	3	1	NaN	0	3	123	NaN	0.75	1757.89662700845	j	NaN	1	NaN	3
4	1	4	1	NaN	0	4	124	NaN	0.5	1501.41449598595	k	NaN	2	NaN	124
4	1	5	1	NaN	0	5	125	NaN	1	1725.66976997769	j	NaN	1	NaN	125
4	1	6	1	NaN	0	6	126	NaN	0	1683.49613901228	k	NaN	2	NaN	126
4	1	7	1	NaN	0	7	127	NaN	0.5	2048.42368001118	j	NaN	1	NaN	127
4	1	8	0	0.25	0	8	1	7	0.25	1695.20496891346	j	1	1	1	1
4	1	9	1	NaN	0	9	128	NaN	0	1909.25481601153	k	NaN	2	NaN	128
4	1	10	1	NaN	0	10	129	NaN	0.5	1365.48915598541	j	NaN	1	NaN	10
4	1	11	0	0.75	0	11	122	9	0.75	1291.02917003911	k	1	2	2	122
4	1	12	0	0.75	0	12	3	9	0.75	1345.68157093599	j	1	1	1	3
4	1	13	0	0.5	0	13	124	9	NaN	NaN	NaN	NaN	NaN	2	NaN
4	1	14	0	1	0	14	125	9	1	1011.65704394225	j	1	1	1	125
4	1	15	1	NaN	0	15	130	NaN	0	1178.90363500919	k	NaN	2	NaN	15
4	1	16	0	0	0	16	126	10	0	1271.36517094914	j	1	1	2	126
4	1	17	0	0.5	0	17	127	10	0.5	1348.33036304917	k	1	2	1	127
4	1	18	1	NaN	0	18	131	NaN	0.5	1658.37491094135	k	NaN	2	NaN	18
4	1	19	0	0	0	19	128	10	0.5	1297.77995799668	k	0	2	2	19
4	1	20	1	NaN	0	20	132	NaN	0.25	2390.45205898583	k	NaN	2	NaN	20
4	1	21	0	0.5	0	21	10	11	0.5	1126.02885905653	k	1	2	1	10
4	1	22	1	NaN	0	22	133	NaN	0	1549.51183206867	k	NaN	2	NaN	22
4	1	23	1	NaN	0	23	134	NaN	1	1547.96493810136	k	NaN	2	NaN	134
4	1	24	1	NaN	0	24	135	NaN	0.75	1745.16222404782	k	NaN	2	NaN	135
4	1	25	0	0	0	25	15	10	0	1288.84727007244	k	0	2	2	25
4	1	26	1	NaN	0	26	136	NaN	0.25	1672.40651103202	j	NaN	1	NaN	26
4	1	27	1	NaN	0	27	137	NaN	0.5	1445.09204488713	j	NaN	1	NaN	137
4	1	28	1	NaN	0	28	138	NaN	1	1546.79630300961	j	NaN	1	NaN	28
4	1	29	0	0.5	0	29	18	11	0.5	1087.66713796649	k	1	2	2	18
4	1	30	0	0.25	0	30	20	10	0.25	1284.85984797589	k	1	2	2	20
4	1	31	1	NaN	0	31	139	NaN	1	1755.86088793352	k	NaN	2	NaN	31
4	1	32	0	0	0	32	22	10	1	2083.00297509413	k	0	2	2	32
4	1	33	0	1	0	33	134	10	1	1955.28226997703	j	1	1	2	134
4	1	34	0	0.75	0	34	135	10	0.75	913.822030997835	k	1	2	2	135
4	1	35	1	NaN	0	35	140	NaN	1	1863.99963404983	k	NaN	2	NaN	35
4	1	36	1	NaN	0	36	141	NaN	0.25	1504.0132959839	j	NaN	1	NaN	141
4	1	37	0	0.25	0	37	26	11	0.75	1869.08181803301	j	0	1	1	37
4	1	38	1	NaN	0	38	142	NaN	0.75	2100.15379998367	k	NaN	2	NaN	142
4	1	39	0	0.5	0	39	137	12	0.5	1003.59834590927	j	1	1	1	137
4	1	40	0	1	0	40	28	12	1	1443.64183698781	j	1	1	1	28
4	1	41	1	NaN	0	41	143	NaN	1	1361.15525197238	k	NaN	2	NaN	41
4	1	42	1	NaN	0	42	144	NaN	0.5	1327.7787680272	j	NaN	1	NaN	42
4	1	43	0	1	0	43	31	12	1	796.917208936065	k	1	2	2	31
4	1	44	0	1	0	44	35	9	1	1004.6877959976	k	1	2	2	35
4	1	45	1	NaN	0	45	145	NaN	1	1792.89765807334	j	NaN	1	NaN	45
4	1	46	1	NaN	0	46	146	NaN	1	1448.77420202829	k	NaN	2	NaN	146
4	1	47	1	NaN	0	47	147	NaN	0.75	1551.71143298503	k	NaN	2	NaN	47
4	1	48	1	NaN	0	48	148	NaN	0.25	1468.10723003	k	NaN	2	NaN	48
4	1	49	0	0.25	0	49	141	13	0.25	1178.40116296429	k	1	2	1	141
4	1	50	0	0.75	0	50	142	12	0.75	1096.59119998105	j	1	1	2	142
4	1	51	1	NaN	0	51	149	NaN	0.25	1287.06787398551	k	NaN	2	NaN	51
4	1	52	1	NaN	0	52	150	NaN	0.5	1858.35983499419	k	NaN	2	NaN	150
4	1	53	0	1	0	53	41	12	0.25	2313.82797600236	j	0	1	2	53
4	1	54	1	NaN	0	54	151	NaN	0.25	1018.20546400268	k	NaN	2	NaN	54
4	1	55	0	0.5	0	55	42	13	0.5	889.533827081323	j	1	1	1	42
4	1	56	1	NaN	0	56	152	NaN	0	1068.73207294848	k	NaN	2	NaN	152
4	1	57	0	1	0	57	45	12	1	1092.19890309032	k	1	2	1	45
4	1	58	0	0.25	0	58	48	10	1	1937.43273301516	k	0	2	2	58
4	1	59	0	0.75	0	59	47	12	0.75	1362.30315396097	j	1	1	2	47
4	1	60	1	NaN	0	60	153	NaN	0.25	1191.03135704063	k	NaN	2	NaN	60
4	1	61	1	NaN	0	61	154	NaN	0	1839.17788404506	k	NaN	2	NaN	154
4	1	62	1	NaN	0	62	155	NaN	0.75	1788.48826501053	j	NaN	1	NaN	62
4	1	63	0	0.25	0	63	51	12	0.25	1893.61313905101	j	1	1	2	51
4	1	64	1	NaN	0	64	156	NaN	0.5	2077.50830298755	j	NaN	1	NaN	156
4	1	65	0	1	0	65	146	19	1	766.212154994719	k	1	2	2	146
4	1	66	1	NaN	0	66	157	NaN	1	1961.77677391097	j	NaN	1	NaN	66
4	1	67	0	0.25	0	67	54	13	0.75	1450.92323899735	j	0	1	2	67
4	1	68	0	0	0	68	152	12	0	1998.88051697053	j	1	1	2	152
4	1	69	0	0.5	0	69	150	17	0.5	1918.96481998265	j	1	1	2	150
4	1	70	0	0.25	0	70	60	10	0.25	1870.45957404189	k	1	2	2	60
4	1	71	1	NaN	0	71	158	NaN	0.5	1567.09743000101	j	NaN	1	NaN	71
4	1	72	0	0	0	72	154	11	1	1524.87517800182	k	0	2	2	72
4	1	73	1	NaN	0	73	159	NaN	0.75	1889.78100393433	k	NaN	2	NaN	159
4	1	74	1	NaN	0	74	160	NaN	0.75	1962.81644992996	k	NaN	2	NaN	74
4	1	75	0	0.75	0	75	62	13	0.75	1674.17339002714	j	1	1	1	62
4	1	76	1	NaN	0	76	161	NaN	0	1222.84612210933	k	NaN	2	NaN	161
4	1	77	1	NaN	0	77	162	NaN	1	1510.84309397265	k	NaN	2	NaN	162
4	1	78	0	1	0	78	66	12	1	837.2403960675	j	1	1	1	66
4	1	79	0	0.5	0	79	156	15	NaN	NaN	NaN	NaN	NaN	1	NaN
4	1	80	1	NaN	0	80	163	NaN	0.5	1032.0840330096	k	NaN	2	NaN	163
4	1	81	0	0.5	0	81	71	10	0.75	1510.27763599996	j	0	1	1	81
4	1	82	1	NaN	0	82	164	NaN	0.5	1132.28019094095	j	NaN	1	NaN	82
4	1	83	0	0.75	0	83	159	10	0.75	936.002623988315	k	1	2	2	159
4	1	84	1	NaN	0	84	165	NaN	0.25	1438.67349706125	j	NaN	1	NaN	165
4	1	85	0	0.75	0	85	74	11	0.75	827.537768986076	k	1	2	2	74
4	1	86	0	0	0	86	161	10	0	1237.6975560328	j	1	1	2	161
4	1	87	0	1	0	87	162	10	1	1777.44418103248	j	1	1	2	162
4	1	88	1	NaN	0	88	166	NaN	0.25	1889.00213199668	j	NaN	1	NaN	88
4	1	89	1	NaN	0	89	167	NaN	0	1502.48991895933	j	NaN	1	NaN	167
4	1	90	1	NaN	0	90	168	NaN	0.5	1589.90174694918	k	NaN	2	NaN	90
4	2	1	1	NaN	0	181	301	NaN	0.5	823.229981935583	k	NaN	2	NaN	181
4	2	2	1	NaN	0	182	302	NaN	1	1171.49107996374	k	NaN	2	NaN	302
4	2	3	1	NaN	0	183	303	NaN	0.25	1604.28039391991	j	NaN	1	NaN	183
4	2	4	1	NaN	0	184	304	NaN	0	1346.28090297338	k	NaN	2	NaN	304
4	2	5	1	NaN	0	185	305	NaN	0.75	1425.32187805045	k	NaN	2	NaN	185
4	2	6	1	NaN	0	186	306	NaN	1	1277.83725701738	k	NaN	2	NaN	306
4	2	7	1	NaN	0	187	307	NaN	0.25	1202.55102799274	k	NaN	2	NaN	187
4	2	8	0	0.5	0	188	181	7	0.5	1248.44166298863	j	1	1	2	181
4	2	9	1	NaN	0	189	308	NaN	1	1134.55011800397	k	NaN	2	NaN	308
4	2	10	0	1	0	190	302	8	1	1013.59106099699	k	1	2	2	302
4	2	11	1	NaN	0	191	309	NaN	0.25	1778.59282400459	k	NaN	2	NaN	309
4	2	12	0	0.25	0	192	183	9	0.25	1441.03699107654	k	1	2	1	183
4	2	13	0	0	0	193	304	9	0.25	1239.60867896676	j	0	1	2	193
4	2	14	1	NaN	0	194	310	NaN	0.75	1461.35063504335	k	NaN	2	NaN	194
4	2	15	0	0.75	0	195	185	10	0.75	1218.45657809172	j	0	1	2	195
4	2	16	1	NaN	0	196	311	NaN	0.75	1697.39469094202	j	NaN	1	NaN	311
4	2	17	0	1	0	197	306	11	1	2041.02278500795	k	1	2	2	306
4	2	18	0	0.25	0	198	187	11	0.25	1030.93220002484	k	1	2	2	187
4	2	19	0	1	0	199	308	10	1	1604.60333398078	j	1	1	2	308
4	2	20	1	NaN	0	200	312	NaN	0.75	1244.46352897212	k	NaN	2	NaN	200
4	2	21	0	0.25	0	201	309	10	0.25	802.498142933473	k	1	2	2	309
4	2	22	1	NaN	0	202	313	NaN	0.75	1256.6418038914	j	NaN	1	NaN	313
4	2	23	1	NaN	0	203	314	NaN	0	1400.77118691988	k	NaN	2	NaN	203
4	2	24	1	NaN	0	204	315	NaN	0.5	1256.03919907007	k	NaN	2	NaN	315
4	2	25	1	NaN	0	205	316	NaN	0.5	1508.36003397126	k	NaN	2	NaN	205
4	2	26	0	0.75	0	206	311	10	1	1721.81735897902	j	0	1	1	206
4	2	27	0	0.75	0	207	194	13	0.75	2328.46177695319	j	1	1	2	194
4	2	28	0	0.75	0	208	200	8	0	1373.31050401554	k	0	2	2	208
4	2	29	0	0.75	0	209	313	7	0.25	1923.79600694403	j	0	1	1	209
4	2	30	1	NaN	0	210	317	NaN	0	1396.22578502167	j	NaN	1	NaN	317
4	2	31	0	0	0	211	203	8	0	1034.52996804845	k	1	2	2	203
4	2	32	1	NaN	0	212	318	NaN	1	1273.03222403862	j	NaN	1	NaN	318
4	2	33	0	0.5	0	213	315	9	0.5	1087.35542104114	j	1	1	2	315
4	2	34	1	NaN	0	214	319	NaN	0.5	1470.31452006195	j	NaN	1	NaN	319
4	2	35	1	NaN	0	215	320	NaN	1	1658.89258403331	j	NaN	1	NaN	320
4	2	36	0	0.5	0	216	205	11	0.5	1584.54273000825	k	0	2	2	216
4	2	37	1	NaN	0	217	321	NaN	0	1047.25486005191	j	NaN	1	NaN	217
4	2	38	0	0	0	218	317	8	0	1998.07651794981	j	1	1	1	317
4	2	39	0	1	0	219	318	7	1	1166.61231301259	k	1	2	1	318
4	2	40	1	NaN	0	220	322	NaN	1	1531.44909103867	k	NaN	2	NaN	322
4	2	41	0	0.5	0	221	319	7	0.5	747.003945987672	k	1	2	1	319
4	2	42	1	NaN	0	222	323	NaN	0.25	1704.15965199936	k	NaN	2	NaN	222
4	2	43	0	1	0	223	320	8	1	1343.65191904362	k	1	2	1	320
4	2	44	1	NaN	0	224	324	NaN	0	1267.55759096704	k	NaN	2	NaN	224
4	2	45	0	0	0	225	217	8	0	1259.80330992024	j	1	1	1	217
4	2	46	1	NaN	0	226	325	NaN	0	1440.374826896	k	NaN	2	NaN	325
4	2	47	0	1	0	227	322	7	1	743.73069498688	k	1	2	2	322
4	2	48	1	NaN	0	228	326	NaN	0.25	1253.21918202098	k	NaN	2	NaN	228
4	2	49	1	NaN	0	229	327	NaN	0.5	1442.91294901632	j	NaN	1	NaN	229
4	2	50	0	0.25	0	230	222	8	0.5	1321.05340599082	j	0	1	2	230
4	2	51	0	0	0	231	224	7	0.5	1367.06227902323	j	0	1	2	231
4	2	52	1	NaN	0	232	328	NaN	0.75	1003.78455000464	k	NaN	2	NaN	232
4	2	53	0	0	0	233	325	7	0.25	1040.94003408682	j	0	1	2	233
4	2	54	1	NaN	0	234	329	NaN	0.5	1612.69505997188	k	NaN	2	NaN	234
4	2	55	1	NaN	0	235	330	NaN	0	1724.80966302101	k	NaN	2	NaN	235
4	2	56	1	NaN	0	236	331	NaN	0	1546.35956604034	k	NaN	2	NaN	236
4	2	57	1	NaN	0	237	332	NaN	0.75	1304.08550309949	k	NaN	2	NaN	237
4	2	58	1	NaN	0	238	333	NaN	0	1635.35254599992	k	NaN	2	NaN	333
4	2	59	0	0.5	0	239	229	10	1	1050.47852301504	j	0	1	1	239
4	2	60	1	NaN	0	240	334	NaN	0	976.84138501063	k	NaN	2	NaN	334
4	2	61	0	0.25	0	241	228	13	0.25	1525.89309797622	k	1	2	2	228
4	2	62	0	0.75	0	242	232	10	0.75	1690.62270701397	k	1	2	2	232
4	2	63	0	0.5	0	243	234	9	0.75	1537.13142010383	j	0	1	2	243
4	2	64	0	0	0	244	235	9	0.5	1704.47144797072	k	0	2	2	244
4	2	65	1	NaN	0	245	335	NaN	0.75	1630.19712409005	k	NaN	2	NaN	335
4	2	66	0	0	0	246	236	10	1	1468.42389006633	k	0	2	2	246
4	2	67	1	NaN	0	247	336	NaN	0.5	2116.2716060644	k	NaN	2	NaN	336
4	2	68	0	0	0	248	333	10	0.25	1300.33549806103	k	0	2	2	248
4	2	69	0	0.75	0	249	237	12	0.75	906.546054058708	k	1	2	2	237
4	2	70	1	NaN	0	250	337	NaN	0.25	1182.85448499955	k	NaN	2	NaN	250
4	2	71	0	0	0	251	334	11	0.25	1572.03330995981	j	0	1	2	251
4	2	72	1	NaN	0	252	338	NaN	0	1714.18495895341	k	NaN	2	NaN	252
4	2	73	1	NaN	0	253	339	NaN	1	1415.74906092137	j	NaN	1	NaN	339
4	2	74	1	NaN	0	254	340	NaN	0.25	1757.21074198373	k	NaN	2	NaN	254
4	2	75	1	NaN	0	255	341	NaN	1	1260.9702469781	j	NaN	1	NaN	255
4	2	76	1	NaN	0	256	342	NaN	0	1443.87075898703	k	NaN	2	NaN	342
4	2	77	0	0.75	0	257	335	12	0.75	1337.57570199668	j	0	1	2	257
4	2	78	0	0.5	0	258	336	11	0.5	1667.8429490421	j	1	1	2	336
4	2	79	1	NaN	0	259	343	NaN	0.25	1234.18776702601	k	NaN	2	NaN	343
4	2	80	0	0.25	0	260	250	10	1	1406.97444695979	j	0	1	2	260
4	2	81	1	NaN	0	261	344	NaN	1	1572.80199299566	j	NaN	1	NaN	261
4	2	82	1	NaN	0	262	345	NaN	0.5	1547.75150795467	j	NaN	1	NaN	345
4	2	83	0	0	0	263	252	11	0.25	2226.88048693817	k	0	2	2	263
4	2	84	0	1	0	264	339	11	1	1072.86026608199	j	1	1	1	339
4	2	85	0	0.25	0	265	254	11	0.75	1671.39713093638	k	0	2	2	265
4	2	86	0	0	0	266	342	10	0	1126.10520003363	j	1	1	2	342
4	2	87	0	1	0	267	255	12	1	1139.05747898389	k	1	2	1	255
4	2	88	1	NaN	0	268	346	NaN	0.75	1536.62515303586	k	NaN	2	NaN	268
4	2	89	0	0.25	0	269	343	10	0.25	1135.21059404593	j	1	1	2	343
4	2	90	1	NaN	0	270	347	NaN	0.75	1702.47491495684	j	NaN	1	NaN	270
5	1	1	1	NaN	0	1	121	NaN	0.25	1863.50387788843	k	NaN	2	NaN	1
5	1	2	1	NaN	0	2	122	NaN	0.5	1982.60971205309	k	NaN	2	NaN	122
5	1	3	1	NaN	0	3	123	NaN	0.25	2101.6172869131	j	NaN	1	NaN	123
5	1	4	1	NaN	0	4	124	NaN	NaN	NaN	NaN	NaN	NaN	NaN	NaN
5	1	5	1	NaN	0	5	125	NaN	0.25	1009.65071993414	k	NaN	2	NaN	5
5	1	6	1	NaN	0	6	126	NaN	0.5	743.260793038644	j	NaN	1	NaN	126
5	1	7	1	NaN	0	7	127	NaN	1	1446.96515996475	k	NaN	2	NaN	127
5	1	8	0	0.25	0	8	1	7	0.25	1206.15628303494	k	1	2	2	1
5	1	9	0	0.5	0	9	122	7	0.5	1723.9119859878	j	1	1	2	122
5	1	10	0	0.25	0	10	123	7	0.25	1323.75852193218	k	1	2	1	123
5	1	11	1	NaN	0	11	128	NaN	0.25	1181.20694707613	k	NaN	2	NaN	11
5	1	12	0	NaN	1	12	4	8	0.75	1482.39906795789	k	1	2	NaN	4
5	1	13	0	0.25	0	13	5	8	0.25	698.121596011333	k	1	2	2	5
5	1	14	1	NaN	0	14	129	NaN	0.75	1295.29338004068	j	NaN	1	NaN	14
5	1	15	0	0.5	0	15	126	9	0.5	830.036284052767	k	1	2	1	126
5	1	16	1	NaN	0	16	130	NaN	1	779.78952601552	k	NaN	2	NaN	16
5	1	17	0	1	0	17	127	10	1	1195.24752208963	k	1	2	2	127
5	1	18	1	NaN	0	18	131	NaN	0.5	1112.25901194848	j	NaN	1	NaN	18
5	1	19	0	0.25	0	19	11	8	0.25	1269.81734507717	j	1	1	2	11
5	1	20	1	NaN	0	20	132	NaN	0.75	1083.40969099663	k	NaN	2	NaN	132
5	1	21	0	0.75	0	21	14	7	0.75	1218.04924297612	j	1	1	1	14
5	1	22	1	NaN	0	22	133	NaN	1	1214.70429399051	j	NaN	1	NaN	133
5	1	23	1	NaN	0	23	134	NaN	0.75	1294.47895602789	j	NaN	1	NaN	23
5	1	24	0	1	0	24	16	8	1	524.56698496826	k	1	2	2	16
5	1	25	1	NaN	0	25	135	NaN	0.5	1155.68545099813	k	NaN	2	NaN	135
5	1	26	0	0.5	0	26	18	8	0.5	1321.48917892482	j	0	1	1	26
5	1	27	0	0.75	0	27	132	7	0.75	1040.09292996489	j	1	1	2	132
5	1	28	1	NaN	0	28	136	NaN	0.75	1414.89484999329	k	NaN	2	NaN	28
5	1	29	1	NaN	0	29	137	NaN	1	1323.47924099304	k	NaN	2	NaN	137
5	1	30	1	NaN	0	30	138	NaN	0.5	1313.29779606313	j	NaN	1	NaN	138
5	1	31	1	NaN	0	31	139	NaN	1	1078.90952390153	j	NaN	1	NaN	31
5	1	32	0	1	0	32	133	10	1	772.96045399271	k	1	2	1	133
5	1	33	1	NaN	0	33	140	NaN	0.25	0.268048024736345	k	NaN	2	NaN	33
5	1	34	1	NaN	0	34	141	NaN	0.5	1930.33173691947	k	NaN	2	NaN	34
5	1	35	0	0.75	0	35	23	12	0.75	1440.62606396619	k	1	2	1	23
5	1	36	0	0.5	0	36	135	11	0.5	1406.19271597825	k	1	2	2	135
5	1	37	1	NaN	0	37	142	NaN	0.25	1028.47189491149	j	NaN	1	NaN	37
5	1	38	1	NaN	0	38	143	NaN	1	640.964475926012	k	NaN	2	NaN	143
5	1	39	0	0.75	0	39	28	11	0.75	1294.0791209694	k	1	2	2	28
5	1	40	1	NaN	0	40	144	NaN	0.5	1147.87597605027	k	NaN	2	NaN	40
5	1	41	0	1	0	41	137	12	1	675.85991602391	k	1	2	2	137
5	1	42	0	0.5	0	42	138	12	0	1808.50903503597	j	0	1	1	42
5	1	43	1	NaN	0	43	145	NaN	0.25	1058.27718193177	k	NaN	2	NaN	43
5	1	44	1	NaN	0	44	146	NaN	0.75	1006.4892899245	j	NaN	1	NaN	146
5	1	45	0	1	0	45	31	14	1	707.487436942756	k	1	2	1	31
5	1	46	0	0.5	0	46	34	12	0.5	1314.7617370123	j	1	1	2	34
5	1	47	0	0.25	0	47	37	10	0.25	1551.11320398282	k	0	2	1	47
5	1	48	1	NaN	0	48	147	NaN	1	1621.66472291574	k	NaN	2	NaN	48
5	1	49	0	1	0	49	143	11	1	610.881896922365	k	1	2	2	143
5	1	50	1	NaN	0	50	148	NaN	0.5	1768.03662604652	j	NaN	1	NaN	148
5	1	51	1	NaN	0	51	149	NaN	0	1112.27700207382	k	NaN	2	NaN	149
5	1	52	0	0.5	0	52	40	12	0.5	1796.51112796273	k	1	2	2	40
5	1	53	0	0.25	0	53	33	20	0.25	0.212426064535975	k	1	2	2	33
5	1	54	1	NaN	0	54	150	NaN	0.5	1195.65781997517	j	NaN	1	NaN	150
5	1	55	1	NaN	0	55	151	NaN	0.5	1099.87995505799	k	NaN	2	NaN	55
5	1	56	1	NaN	0	56	152	NaN	1	912.434789002873	k	NaN	2	NaN	56
5	1	57	0	0.25	0	57	43	14	0.25	1533.9765320532	j	1	1	2	43
5	1	58	1	NaN	0	58	153	NaN	0.75	1158.12489506789	k	NaN	2	NaN	58
5	1	59	0	0.75	0	59	146	15	0.75	994.890953996219	j	1	1	1	146
5	1	60	0	1	0	60	48	12	1	1200.37198497448	j	1	1	2	48
5	1	61	0	0.5	0	61	148	11	0.5	2108.2108579576	k	0	2	1	61
5	1	62	1	NaN	0	62	154	NaN	1	1364.02335495222	k	NaN	2	NaN	62
5	1	63	1	NaN	0	63	155	NaN	0	1251.37601804454	j	NaN	1	NaN	63
5	1	64	1	NaN	0	64	156	NaN	1	1473.27949898317	k	NaN	2	NaN	156
5	1	65	0	0	0	65	149	14	0.75	1296.80766805541	k	0	2	2	65
5	1	66	1	NaN	0	66	157	NaN	0.75	1156.41056501772	j	NaN	1	NaN	66
5	1	67	0	0.5	0	67	150	13	0.5	1515.18225704785	k	1	2	1	150
5	1	68	0	0.75	0	68	58	10	0.75	1888.11667496338	k	1	2	2	58
5	1	69	0	0.5	0	69	55	14	NaN	NaN	NaN	NaN	NaN	2	NaN
5	1	70	0	1	0	70	56	14	0.25	965.037788031623	k	0	2	2	70
5	1	71	0	1	0	71	62	9	1	1587.90081099141	j	1	1	2	62
5	1	72	1	NaN	0	72	158	NaN	0.25	985.644259955734	k	NaN	2	NaN	158
5	1	73	1	NaN	0	73	159	NaN	0	1254.78469498921	k	NaN	2	NaN	73
5	1	74	0	0	0	74	63	11	0.5	795.066358055919	k	0	2	1	74
5	1	75	1	NaN	0	75	160	NaN	0	1040.48706893809	j	NaN	1	NaN	75
5	1	76	0	1	0	76	156	12	1	1015.13535191771	j	1	1	2	156
5	1	77	1	NaN	0	77	161	NaN	1	1310.28348300606	k	NaN	2	NaN	77
5	1	78	1	NaN	0	78	162	NaN	0.25	1108.01826405805	k	NaN	2	NaN	162
5	1	79	0	0.75	0	79	66	13	0.75	1656.42320504412	j	1	1	1	66
5	1	80	0	0.25	0	80	158	8	0.25	1045.24210398085	k	1	2	2	158
5	1	81	0	0	0	81	73	8	0	939.653976936825	j	1	1	2	73
5	1	82	1	NaN	0	82	163	NaN	0.5	1098.07928197552	j	NaN	1	NaN	82
5	1	83	0	0	0	83	75	8	0	1472.93942607939	j	1	1	1	75
5	1	84	1	NaN	0	84	164	NaN	0.25	1141.02130499668	k	NaN	2	NaN	84
5	1	85	1	NaN	0	85	165	NaN	0.25	868.18658199627	k	NaN	2	NaN	165
5	1	86	1	NaN	0	86	166	NaN	0.25	905.157075962052	j	NaN	1	NaN	166
5	1	87	1	NaN	0	87	167	NaN	0.5	1182.98308807425	k	NaN	2	NaN	87
5	1	88	1	NaN	0	88	168	NaN	0.25	1005.09602297097	j	NaN	1	NaN	88
5	1	89	0	1	0	89	77	12	1	602.483315975405	k	1	2	2	77
5	1	90	0	0.25	0	90	162	12	0.25	1584.61186394561	k	1	2	2	162
5	2	1	1	NaN	0	181	301	NaN	1	1123.96386009641	j	NaN	1	NaN	301
5	2	2	1	NaN	0	182	302	NaN	1	1259.26396995783	k	NaN	2	NaN	182
5	2	3	1	NaN	0	183	303	NaN	0	1393.52389005944	k	NaN	2	NaN	183
5	2	4	1	NaN	0	184	304	NaN	0.75	1006.3039889792	j	NaN	1	NaN	304
5	2	5	1	NaN	0	185	305	NaN	0.5	909.664690028876	j	NaN	1	NaN	185
5	2	6	1	NaN	0	186	306	NaN	0.25	1358.03232993931	j	NaN	1	NaN	306
5	2	7	1	NaN	0	187	307	NaN	1	1665.27919599321	k	NaN	2	NaN	187
5	2	8	1	NaN	0	188	308	NaN	0.25	816.315098083578	j	NaN	1	NaN	308
5	2	9	0	1	0	189	301	8	1	733.509447076358	k	1	2	1	301
5	2	10	1	NaN	0	190	309	NaN	0.25	1363.93570294604	k	NaN	2	NaN	190
5	2	11	0	1	0	191	182	9	1	930.956076947041	k	1	2	2	182
5	2	12	1	NaN	0	192	310	NaN	0	1226.45919199567	j	NaN	1	NaN	192
5	2	13	0	0	0	193	183	10	1	1161.59261390567	j	0	1	2	193
5	2	14	1	NaN	0	194	311	NaN	1	1381.2294320669	k	NaN	2	NaN	194
5	2	15	0	0.75	0	195	304	11	0.75	1332.5473429868	k	1	2	1	304
5	2	16	0	0.5	0	196	185	11	0.5	985.725895967335	j	1	1	1	185
5	2	17	0	1	0	197	187	10	1	1015.45552397147	k	1	2	2	187
5	2	18	1	NaN	0	198	312	NaN	0.5	1133.59726802446	j	NaN	1	NaN	198
5	2	19	0	0.25	0	199	308	11	0.25	683.241116930731	k	1	2	1	308
5	2	20	1	NaN	0	200	313	NaN	1	953.59442406334	j	NaN	1	NaN	200
5	2	21	0	0.25	0	201	306	15	0.25	782.415122026578	j	1	1	1	306
5	2	22	0	0.25	0	202	190	12	0.25	1003.53311409708	j	1	1	2	190
5	2	23	1	NaN	0	203	314	NaN	0	1442.05063593108	k	NaN	2	NaN	314
5	2	24	0	0	0	204	192	12	0	930.128655047156	j	1	1	1	192
5	2	25	0	1	0	205	194	11	0.75	1126.42588210292	k	0	2	2	205
5	2	26	1	NaN	0	206	315	NaN	0	1372.77855596039	k	NaN	2	NaN	315
5	2	27	0	0.5	0	207	198	9	0.5	947.651066933759	j	1	1	1	198
5	2	28	1	NaN	0	208	316	NaN	0.25	994.034123956226	k	NaN	2	NaN	316
5	2	29	0	1	0	209	200	9	1	991.776390001178	j	1	1	1	200
5	2	30	1	NaN	0	210	317	NaN	0.25	1796.78844998125	j	NaN	1	NaN	210
5	2	31	0	0	0	211	314	8	1	893.342438037507	j	0	1	2	211
5	2	32	1	NaN	0	212	318	NaN	0.5	918.615126982331	j	NaN	1	NaN	318
5	2	33	0	0	0	213	315	7	1	1126.12848798744	k	0	2	2	213
5	2	34	1	NaN	0	214	319	NaN	0.25	1163.82422298193	k	NaN	2	NaN	319
5	2	35	0	0.25	0	215	316	7	0.25	1498.47645789851	j	1	1	2	316
5	2	36	1	NaN	0	216	320	NaN	0	1553.60480304807	k	NaN	2	NaN	216
5	2	37	0	0.25	0	217	210	7	0.25	1568.93683306407	j	1	1	1	210
5	2	38	1	NaN	0	218	321	NaN	0.5	1087.20457705203	k	NaN	2	NaN	218
5	2	39	1	NaN	0	219	322	NaN	0.75	1597.29433199391	k	NaN	2	NaN	322
5	2	40	1	NaN	0	220	323	NaN	0	892.54248002544	j	NaN	1	NaN	323
5	2	41	1	NaN	0	221	324	NaN	0.25	1681.7034939304	j	NaN	1	NaN	324
5	2	42	0	0.5	0	222	318	10	0.5	1071.88306993339	j	1	1	1	318
5	2	43	1	NaN	0	223	325	NaN	0.5	862.418010015972	k	NaN	2	NaN	223
5	2	44	1	NaN	0	224	326	NaN	1	1348.36502501275	j	NaN	1	NaN	326
5	2	45	0	0.25	0	225	319	11	0.25	1411.57009301241	j	1	1	2	319
5	2	46	0	0	0	226	216	10	0.5	1569.52464301139	j	0	1	2	226
5	2	47	1	NaN	0	227	327	NaN	0.25	1273.45810097177	j	NaN	1	NaN	327
5	2	48	0	0.5	0	228	218	10	0.5	1168.44514303375	j	1	1	2	218
5	2	49	0	0.75	0	229	322	10	0.75	772.015783004463	j	1	1	2	322
5	2	50	0	0	0	230	323	10	0.5	793.856270960532	k	0	2	1	230
5	2	51	0	0.25	0	231	324	10	0.5	1600.04422010388	k	0	2	1	231
5	2	52	1	NaN	0	232	328	NaN	0	1063.2712719962	k	NaN	2	NaN	328
5	2	53	0	0.5	0	233	223	10	0.5	1174.3302019313	j	1	1	2	223
5	2	54	1	NaN	0	234	329	NaN	0.75	1305.79622404184	j	NaN	1	NaN	234
5	2	55	1	NaN	0	235	330	NaN	0.75	1880.89599797968	j	NaN	1	NaN	235
5	2	56	0	1	0	236	326	12	1	761.258475016803	j	1	1	1	326
5	2	57	0	0.25	0	237	327	10	0.75	726.824159966782	j	0	1	1	237
5	2	58	1	NaN	0	238	331	NaN	0.5	964.167663012631	k	NaN	2	NaN	238
5	2	59	0	0	0	239	328	7	0.25	731.106764054857	k	0	2	2	239
5	2	60	1	NaN	0	240	332	NaN	1	1224.6743029682	k	NaN	2	NaN	332
5	2	61	1	NaN	0	241	333	NaN	1	1366.61315709352	k	NaN	2	NaN	241
5	2	62	1	NaN	0	242	334	NaN	0	1310.48974499572	j	NaN	1	NaN	334
5	2	63	1	NaN	0	243	335	NaN	0	1482.84039099235	k	NaN	2	NaN	335
5	2	64	0	0.75	0	244	234	10	0.75	849.628146970645	j	1	1	1	234
5	2	65	1	NaN	0	245	336	NaN	0	1431.81028589606	k	NaN	2	NaN	245
5	2	66	1	NaN	0	246	337	NaN	0	1159.93693994824	j	NaN	1	NaN	337
5	2	67	0	0.75	0	247	235	12	0.75	1566.54353998601	j	1	1	1	235
5	2	68	1	NaN	0	248	338	NaN	0.75	1334.78127303533	k	NaN	2	NaN	248
5	2	69	0	0.5	0	249	238	11	0.5	1254.28064202424	k	1	2	2	238
5	2	70	1	NaN	0	250	339	NaN	0.5	973.493928089738	k	NaN	2	NaN	339
5	2	71	0	1	0	251	332	11	1	1700.26027504355	k	1	2	2	332
5	2	72	0	0	0	252	334	10	0	1817.03000608832	j	1	1	1	334
5	2	73	0	0	0	253	335	10	0	1802.21307999454	j	1	1	2	335
5	2	74	0	1	0	254	241	13	1	1129.27261309233	k	1	2	2	241
5	2	75	1	NaN	0	255	340	NaN	0.25	1609.7072790144	j	NaN	1	NaN	255
5	2	76	1	NaN	0	256	341	NaN	0.75	1641.71019999776	k	NaN	2	NaN	256
5	2	77	1	NaN	0	257	342	NaN	0.25	1366.47534999065	k	NaN	2	NaN	342
5	2	78	1	NaN	0	258	343	NaN	0.5	1205.72534098756	k	NaN	2	NaN	343
5	2	79	0	0	0	259	337	13	0	1963.9108319534	k	1	2	1	337
5	2	80	1	NaN	0	260	344	NaN	0.25	1395.24221501779	j	NaN	1	NaN	260
5	2	81	0	0.75	0	261	248	13	0.75	1518.64976796787	k	1	2	2	248
5	2	82	1	NaN	0	262	345	NaN	1	1207.33611797914	k	NaN	2	NaN	262
5	2	83	0	0	0	263	245	18	0	1532.09278103895	j	1	1	2	245
5	2	84	1	NaN	0	264	346	NaN	0	714.588021975942	j	NaN	1	NaN	264
5	2	85	0	0.5	0	265	339	15	0.5	873.594776028767	k	1	2	2	339
5	2	86	1	NaN	0	266	347	NaN	1	1270.6688240869	k	NaN	2	NaN	347
5	2	87	0	0.25	0	267	255	12	0.25	1724.7498659417	j	1	1	1	255
5	2	88	1	NaN	0	268	348	NaN	0.75	866.656786063686	k	NaN	2	NaN	268
5	2	89	0	0.75	0	269	256	13	0.75	1520.66873607691	k	1	2	2	256
5	2	90	0	0.25	0	270	342	13	0	2062.59030196816	k	0	2	2	270
6	1	1	1	NaN	0	1	121	NaN	0.5	2197.76856712997	j	NaN	1	NaN	1
6	1	2	1	NaN	0	2	122	NaN	1	1616.56463099644	j	NaN	1	NaN	122
6	1	3	1	NaN	0	3	123	NaN	0.5	1828.11555988155	j	NaN	1	NaN	123
6	1	4	1	NaN	0	4	124	NaN	0.25	1221.03443113156	j	NaN	1	NaN	4
6	1	5	1	NaN	0	5	125	NaN	0	2193.03195993416	k	NaN	2	NaN	125
6	1	6	1	NaN	0	6	126	NaN	0	1720.6503439229	k	NaN	2	NaN	6
6	1	7	1	NaN	0	7	127	NaN	0.75	886.968246893957	j	NaN	1	NaN	127
6	1	8	0	0.5	0	8	1	7	0	821.002990007401	j	0	1	1	8
6	1	9	0	1	0	9	122	7	1	1905.39244702086	k	1	2	1	122
6	1	10	0	0.5	0	10	123	7	0.5	1809.66283706948	j	1	1	1	123
6	1	11	1	NaN	0	11	128	NaN	0.5	1681.71685002744	k	NaN	2	NaN	128
6	1	12	0	0.25	0	12	4	8	0.25	1615.9850389231	k	1	2	1	4
6	1	13	0	0	0	13	125	8	0	1788.10427803546	k	1	2	2	125
6	1	14	1	NaN	0	14	129	NaN	1	1756.25801994465	k	NaN	2	NaN	14
6	1	15	0	0	0	15	6	9	0	1612.31472506188	j	1	1	2	6
6	1	16	1	NaN	0	16	130	NaN	0	1666.51725885458	k	NaN	2	NaN	16
6	1	17	0	0.75	0	17	127	10	0.75	1329.19883192517	j	1	1	1	127
6	1	18	1	NaN	0	18	131	NaN	0.75	1759.27470019087	k	NaN	2	NaN	18
6	1	19	0	0.5	0	19	128	8	0.5	2060.43723085895	j	0	1	2	19
6	1	20	1	NaN	0	20	132	NaN	0.25	1558.54718689807	k	NaN	2	NaN	132
6	1	21	0	1	0	21	14	7	1	1677.22429102287	j	1	1	2	14
6	1	22	1	NaN	0	22	133	NaN	0.5	1484.77959516458	j	NaN	1	NaN	22
6	1	23	1	NaN	0	23	134	NaN	0.25	1836.840728065	k	NaN	2	NaN	23
6	1	24	0	0	0	24	16	8	1	1668.42367290519	j	0	1	2	24
6	1	25	1	NaN	0	25	135	NaN	1	1170.18720600754	j	NaN	1	NaN	25
6	1	26	0	0.75	0	26	18	8	0.75	1657.01690409333	k	1	2	2	18
6	1	27	0	0.25	0	27	132	7	0.25	1793.89137704857	j	1	1	2	132
6	1	28	1	NaN	0	28	136	NaN	0.5	1530.01162293367	k	NaN	2	NaN	28
6	1	29	1	NaN	0	29	137	NaN	0.25	1430.22278603166	j	NaN	1	NaN	137
6	1	30	1	NaN	0	30	138	NaN	0.75	932.773345848545	j	NaN	1	NaN	138
6	1	31	1	NaN	0	31	139	NaN	1	1155.2918991074	j	NaN	1	NaN	31
6	1	32	0	0.5	0	32	22	10	1	1896.70347911306	k	0	2	1	32
6	1	33	1	NaN	0	33	140	NaN	0.5	2040.2951920405	j	NaN	1	NaN	33
6	1	34	1	NaN	0	34	141	NaN	0	1441.69182400219	k	NaN	2	NaN	141
6	1	35	0	0.25	0	35	23	12	0.25	1406.99998685159	j	0	1	2	35
6	1	36	0	1	0	36	25	11	0.75	1166.09057202004	k	0	2	1	36
6	1	37	1	NaN	0	37	142	NaN	1	1363.59954602085	j	NaN	1	NaN	142
6	1	38	1	NaN	0	38	143	NaN	0.75	1457.36355497502	k	NaN	2	NaN	143
6	1	39	0	0.5	0	39	28	11	0	971.079419832677	j	0	1	2	39
6	1	40	1	NaN	0	40	144	NaN	1	1443.22625314817	k	NaN	2	NaN	144
6	1	41	0	0.25	0	41	137	12	0.5	2024.67755507678	k	0	2	1	41
6	1	42	0	0.75	0	42	138	12	1	1400.69754910655	j	0	1	1	42
6	1	43	1	NaN	0	43	145	NaN	0.5	1477.26355586201	k	NaN	2	NaN	145
6	1	44	1	NaN	0	44	146	NaN	1	857.797296019271	j	NaN	1	NaN	44
6	1	45	0	1	0	45	31	14	1	1510.65708789974	k	1	2	1	31
6	1	46	0	0	0	46	141	12	0.25	1021.80469990708	k	0	2	2	46
6	1	47	0	1	0	47	142	10	1	1873.41234716587	k	1	2	1	142
6	1	48	1	NaN	0	48	147	NaN	0	1265.91145503335	k	NaN	2	NaN	48
6	1	49	0	0.75	0	49	143	11	0.75	1166.11793707125	j	1	1	2	143
6	1	50	1	NaN	0	50	148	NaN	1	877.461168915033	k	NaN	2	NaN	148
6	1	51	1	NaN	0	51	149	NaN	0.5	1097.83164598048	j	NaN	1	NaN	51
6	1	52	0	1	0	52	144	12	1	888.184671988711	k	1	2	2	144
6	1	53	0	0.5	0	53	33	20	0.5	1111.39945592731	j	1	1	1	33
6	1	54	1	NaN	0	54	150	NaN	0.5	814.218492945656	k	NaN	2	NaN	54
6	1	55	1	NaN	0	55	151	NaN	0	1178.39668015949	j	NaN	1	NaN	151
6	1	56	1	NaN	0	56	152	NaN	0.25	1208.50553014316	k	NaN	2	NaN	152
6	1	57	0	0.5	0	57	145	14	0.25	2182.99847003073	k	0	2	2	57
6	1	58	1	NaN	0	58	153	NaN	0.75	1150.99725406617	j	NaN	1	NaN	153
6	1	59	0	1	0	59	44	15	1	1843.12917105854	k	1	2	1	44
6	1	60	0	0	0	60	48	12	0	1653.53436209261	k	0	2	2	60
6	1	61	0	1	0	61	148	11	1	1097.67376910895	k	1	2	2	148
6	1	62	1	NaN	0	62	154	NaN	1	1455.43041592464	k	NaN	2	NaN	62
6	1	63	1	NaN	0	63	155	NaN	0	1716.05857904069	k	NaN	2	NaN	155
6	1	64	1	NaN	0	64	156	NaN	0.5	1235.04930105992	j	NaN	1	NaN	156
6	1	65	0	0.5	0	65	51	14	0.5	2136.9474849198	j	1	1	1	51
6	1	66	1	NaN	0	66	157	NaN	0.25	2265.332773095	k	NaN	2	NaN	157
6	1	67	0	0.5	0	67	54	13	0.75	1225.95490911044	j	0	1	2	67
6	1	68	0	0.75	0	68	153	10	0.75	1733.61677280627	k	1	2	1	153
6	1	69	0	0	0	69	151	14	0	1659.79683212936	j	0	1	1	69
6	1	70	0	0.25	0	70	152	14	0.25	1698.942061048	k	1	2	2	152
6	1	71	0	1	0	71	62	9	0.75	1153.37450080551	j	0	1	2	71
6	1	72	1	NaN	0	72	158	NaN	0.25	1591.20153798722	j	NaN	1	NaN	158
6	1	73	1	NaN	0	73	159	NaN	0.75	1670.21317500621	k	NaN	2	NaN	73
6	1	74	0	0	0	74	155	11	0.5	1474.01666897349	k	0	2	2	74
6	1	75	1	NaN	0	75	160	NaN	0.5	1385.81718713976	j	NaN	1	NaN	75
6	1	76	0	0.5	0	76	156	12	0.5	1702.97900098376	k	1	2	1	156
6	1	77	1	NaN	0	77	161	NaN	0	1525.57249786332	j	NaN	1	NaN	77
6	1	78	1	NaN	0	78	162	NaN	1	1116.72905203886	k	NaN	2	NaN	162
6	1	79	0	0.25	0	79	157	13	0.25	1585.2855341509	k	1	2	2	157
6	1	80	0	0.25	0	80	158	8	0.25	1447.2667130176	j	1	1	1	158
6	1	81	0	0.75	0	81	73	8	0.75	1589.38528806902	k	0	2	2	81
6	1	82	1	NaN	0	82	163	NaN	0.75	1890.60181193054	j	NaN	1	NaN	82
6	1	83	0	0.5	0	83	75	8	0.5	1124.85680310056	k	0	2	1	83
6	1	84	1	NaN	0	84	164	NaN	0.5	1104.47072796524	k	NaN	2	NaN	164
6	1	85	1	NaN	0	85	165	NaN	0.75	1175.56106508709	j	NaN	1	NaN	165
6	1	86	1	NaN	0	86	166	NaN	0.75	1492.72816884331	k	NaN	2	NaN	166
6	1	87	1	NaN	0	87	167	NaN	0	1121.9617149327	k	NaN	2	NaN	167
6	1	88	1	NaN	0	88	168	NaN	0.25	1153.04184285924	j	NaN	1	NaN	168
6	1	89	0	0	0	89	77	12	1	1824.03010199778	j	0	1	1	89
6	1	90	0	1	0	90	162	12	1	1414.52969308011	j	1	1	2	162
6	2	1	1	NaN	0	181	301	NaN	0.5	2233.44060918316	j	NaN	1	NaN	181
6	2	2	1	NaN	0	182	302	NaN	1	1368.04964602925	j	NaN	1	NaN	302
6	2	3	1	NaN	0	183	303	NaN	0.5	958.61478196457	j	NaN	1	NaN	183
6	2	4	1	NaN	0	184	304	NaN	0.5	1363.33752702922	j	NaN	1	NaN	304
6	2	5	1	NaN	0	185	305	NaN	0.75	1260.03745314665	k	NaN	2	NaN	185
6	2	6	1	NaN	0	186	306	NaN	0.5	1064.95561497286	j	NaN	1	NaN	306
6	2	7	1	NaN	0	187	307	NaN	0.75	1456.08431100845	j	NaN	1	NaN	187
6	2	8	1	NaN	0	188	308	NaN	0	1101.60728497431	k	NaN	2	NaN	308
6	2	9	0	0.5	0	189	181	8	1	1045.07706407458	j	0	1	1	189
6	2	10	1	NaN	0	190	309	NaN	0.5	1594.6291689761	j	NaN	1	NaN	190
6	2	11	0	1	0	191	302	9	1	1985.6878509745	k	1	2	1	302
6	2	12	1	NaN	0	192	310	NaN	0	1793.21127617732	j	NaN	1	NaN	310
6	2	13	0	0.5	0	193	183	10	0.5	1592.5764690619	k	1	2	1	183
6	2	14	1	NaN	0	194	311	NaN	1	1390.45314211398	j	NaN	1	NaN	194
6	2	15	0	0.5	0	195	304	11	1	1277.35094306991	k	0	2	1	195
6	2	16	0	0.75	0	196	185	11	0.75	946.493980009109	k	1	2	2	185
6	2	17	0	0.75	0	197	187	10	0.25	1242.456802167	k	0	2	1	197
6	2	18	1	NaN	0	198	312	NaN	0.25	1176.60443391651	k	NaN	2	NaN	312
6	2	19	0	0	0	199	308	11	1	1222.99564210698	j	0	1	2	199
6	2	20	1	NaN	0	200	313	NaN	1	1301.49930017069	j	NaN	1	NaN	200
6	2	21	0	0.5	0	201	306	15	0.5	1132.9561569728	k	1	2	1	306
6	2	22	0	0.5	0	202	190	12	0.25	1618.74423292466	k	0	2	1	202
6	2	23	1	NaN	0	203	314	NaN	1	1242.37456498668	j	NaN	1	NaN	314
6	2	24	0	0	0	204	310	12	0.5	1159.52473506331	j	0	1	1	204
6	2	25	0	1	0	205	194	11	1	1836.15872217342	j	1	1	1	194
6	2	26	1	NaN	0	206	315	NaN	0	2293.73004985973	k	NaN	2	NaN	206
6	2	27	0	0.25	0	207	312	9	NaN	NaN	NaN	NaN	NaN	2	NaN
6	2	28	1	NaN	0	208	316	NaN	0.5	663.476360030472	j	NaN	1	NaN	316
6	2	29	0	1	0	209	200	9	1	839.511764934286	k	1	2	1	200
6	2	30	1	NaN	0	210	317	NaN	0.75	917.38150594756	k	NaN	2	NaN	210
6	2	31	0	1	0	211	314	8	1	1002.34193890356	k	1	2	1	314
6	2	32	1	NaN	0	212	318	NaN	0	1096.73750703223	k	NaN	2	NaN	212
6	2	33	0	0	0	213	206	7	0	988.646102836356	k	1	2	2	206
6	2	34	1	NaN	0	214	319	NaN	0	893.416841048747	k	NaN	2	NaN	319
6	2	35	0	0.5	0	215	316	7	0.75	1011.65856607258	k	0	2	1	215
6	2	36	1	NaN	0	216	320	NaN	0	1105.58728687465	k	NaN	2	NaN	320
6	2	37	0	0.75	0	217	210	7	0.75	887.832668144256	k	1	2	2	210
6	2	38	1	NaN	0	218	321	NaN	0.25	1189.79464005679	k	NaN	2	NaN	321
6	2	39	1	NaN	0	219	322	NaN	1	1381.27742311917	j	NaN	1	NaN	219
6	2	40	1	NaN	0	220	323	NaN	0	1331.84038382024	k	NaN	2	NaN	220
6	2	41	1	NaN	0	221	324	NaN	0.75	1025.57508391328	k	NaN	2	NaN	324
6	2	42	0	0	0	222	212	10	1	1733.92652906477	j	0	1	2	222
6	2	43	1	NaN	0	223	325	NaN	0	1308.87039005756	j	NaN	1	NaN	223
6	2	44	1	NaN	0	224	326	NaN	0.5	1392.92763499543	k	NaN	2	NaN	224
6	2	45	0	0	0	225	319	11	0	1062.85531399772	k	0	2	2	225
6	2	46	0	0	0	226	320	10	1	1790.5703780707	k	0	2	2	226
6	2	47	1	NaN	0	227	327	NaN	0.75	1246.14001507871	k	NaN	2	NaN	327
6	2	48	0	0.25	0	228	321	10	0.5	1803.06935613044	j	0	1	2	228
6	2	49	0	1	0	229	219	10	1	1891.2719679065	j	1	1	1	219
6	2	50	0	0	0	230	220	10	0	1053.14858187921	j	1	1	2	220
6	2	51	0	0.75	0	231	324	10	0.75	914.66726991348	k	0	2	2	231
6	2	52	1	NaN	0	232	328	NaN	1	919.357819017023	k	NaN	2	NaN	232
6	2	53	0	0	0	233	223	10	0	1507.96975521371	k	1	2	1	223
6	2	54	1	NaN	0	234	329	NaN	1	850.531125208363	j	NaN	1	NaN	234
6	2	55	1	NaN	0	235	330	NaN	0.5	1287.46003191918	j	NaN	1	NaN	330
6	2	56	0	0.5	0	236	224	12	0	1359.76093099453	j	0	1	2	236
6	2	57	0	0.75	0	237	327	10	0.5	909.921918064356	k	0	2	2	237
6	2	58	1	NaN	0	238	331	NaN	0	1156.54616197571	k	NaN	2	NaN	331
6	2	59	0	1	0	239	232	7	1	1442.69140507095	k	1	2	2	232
6	2	60	1	NaN	0	240	332	NaN	0.25	1183.25137184002	k	NaN	2	NaN	240
6	2	61	1	NaN	0	241	333	NaN	0.5	1443.75910097733	k	NaN	2	NaN	333
6	2	62	1	NaN	0	242	334	NaN	1	1298.39868703857	k	NaN	2	NaN	242
6	2	63	1	NaN	0	243	335	NaN	0.25	967.539007076994	k	NaN	2	NaN	243
6	2	64	0	1	0	244	234	10	1	1301.56938289292	j	1	1	1	234
6	2	65	1	NaN	0	245	336	NaN	0	1092.39856293425	k	NaN	2	NaN	336
6	2	66	1	NaN	0	246	337	NaN	0.25	1073.43822089024	j	NaN	1	NaN	337
6	2	67	0	0.5	0	247	330	12	0.5	1633.47733602859	k	1	2	1	330
6	2	68	1	NaN	0	248	338	NaN	0	1303.78499487415	k	NaN	2	NaN	338
6	2	69	0	0	0	249	331	11	1	1676.8772599753	k	0	2	2	249
6	2	70	1	NaN	0	250	339	NaN	0.75	1138.63297691569	k	NaN	2	NaN	339
6	2	71	0	0.25	0	251	240	11	0.25	2304.46648993529	j	1	1	2	240
6	2	72	0	1	0	252	242	10	1	1065.40304003283	k	1	2	2	242
6	2	73	0	0.25	0	253	243	10	0.75	974.303371971473	k	0	2	2	253
6	2	74	0	0.5	0	254	333	13	0.25	1164.02020002715	k	0	2	2	254
6	2	75	1	NaN	0	255	340	NaN	0.5	1570.50927099772	j	NaN	1	NaN	255
6	2	76	1	NaN	0	256	341	NaN	0.75	1543.9299880527	j	NaN	1	NaN	341
6	2	77	1	NaN	0	257	342	NaN	1	1341.20784909464	k	NaN	2	NaN	257
6	2	78	1	NaN	0	258	343	NaN	0.5	1203.59829394147	k	NaN	2	NaN	258
6	2	79	0	0.25	0	259	337	13	0	1913.1664999295	j	0	1	1	259
6	2	80	1	NaN	0	260	344	NaN	0.5	968.271344900131	k	NaN	2	NaN	260
6	2	81	0	0	0	261	338	13	0.75	1311.55257299542	k	0	2	2	261
6	2	82	1	NaN	0	262	345	NaN	0.5	1407.70984604023	j	NaN	1	NaN	262
6	2	83	0	0	0	263	336	18	0.5	1133.85347812437	j	0	1	2	263
6	2	84	1	NaN	0	264	346	NaN	0.5	1243.88257483952	j	NaN	1	NaN	264
6	2	85	0	0.75	0	265	339	15	0.75	1632.01069785282	k	1	2	2	339
6	2	86	1	NaN	0	266	347	NaN	0.75	1222.25158591755	j	NaN	1	NaN	266
6	2	87	0	0.5	0	267	255	12	0.75	1381.96912314743	k	0	2	1	267
6	2	88	1	NaN	0	268	348	NaN	0.25	1323.33649881184	j	NaN	1	NaN	268
6	2	89	0	0.75	0	269	341	13	1	1017.74914306588	k	0	2	1	269
6	2	90	0	1	0	270	257	13	1	1591.43500286154	k	1	2	2	257
7	1	1	1	NaN	0	361	481	NaN	NaN	NaN	NaN	NaN	NaN	NaN	NaN
7	1	2	1	NaN	0	362	482	NaN	0.25	1553.666125983	j	NaN	1	NaN	362
7	1	3	1	NaN	0	363	483	NaN	0	1407.50715695322	k	NaN	2	NaN	483
7	1	4	1	NaN	0	364	484	NaN	0.5	1916.21395805851	j	NaN	1	NaN	364
7	1	5	1	NaN	0	365	485	NaN	0	1261.06001087464	j	NaN	1	NaN	485
7	1	6	1	NaN	0	366	486	NaN	1	1489.4405908417	k	NaN	2	NaN	486
7	1	7	1	NaN	0	367	487	NaN	0	1560.65919483081	k	NaN	2	NaN	487
7	1	8	0	NaN	1	368	361	7	NaN	NaN	NaN	NaN	NaN	NaN	NaN
7	1	9	1	NaN	0	369	488	NaN	0	1634.42667899653	j	NaN	1	NaN	369
7	1	10	1	NaN	0	370	489	NaN	1	2360.96669407561	k	NaN	2	NaN	370
7	1	11	0	0.25	0	371	362	9	0.25	2088.46142003313	k	1	2	1	362
7	1	12	0	0	0	372	483	9	0.75	1886.93377608433	k	0	2	2	372
7	1	13	1	NaN	0	373	490	NaN	0	1534.80016393587	k	NaN	2	NaN	373
7	1	14	0	0.5	0	374	364	10	0.5	1621.95441080257	j	0	1	1	374
7	1	15	1	NaN	0	375	491	NaN	0.5	1636.45427115262	j	NaN	1	NaN	375
7	1	16	0	0	0	376	485	11	0	1592.49015687965	j	1	1	1	485
7	1	17	0	0	0	377	487	10	0.25	2152.19142800197	j	0	1	2	377
7	1	18	1	NaN	0	378	492	NaN	0.25	1582.77553808875	j	NaN	1	NaN	378
7	1	19	0	1	0	379	486	13	1	1958.74111005105	k	1	2	2	486
7	1	20	0	1	0	380	370	10	0.75	2189.91152802482	j	0	1	2	380
7	1	21	0	0	0	381	369	12	0	1606.10946500674	k	1	2	1	369
7	1	22	1	NaN	0	382	493	NaN	1	2277.42121880874	k	NaN	2	NaN	382
7	1	23	0	0	0	383	373	10	NaN	NaN	NaN	NaN	NaN	2	NaN
7	1	24	1	NaN	0	384	494	NaN	0.25	1487.56364919245	k	NaN	2	NaN	384
7	1	25	1	NaN	0	385	495	NaN	0.5	1196.72696990892	k	NaN	2	NaN	385
7	1	26	1	NaN	0	386	496	NaN	1	2354.99276011251	k	NaN	2	NaN	386
7	1	27	1	NaN	0	387	497	NaN	0.25	1921.35611013509	k	NaN	2	NaN	497
7	1	28	1	NaN	0	388	498	NaN	0.25	1776.51669993065	j	NaN	1	NaN	498
7	1	29	0	0.5	0	389	375	14	NaN	NaN	NaN	NaN	NaN	1	NaN
7	1	30	0	0.25	0	390	378	12	0.5	1301.14408000372	k	0	2	1	390
7	1	31	1	NaN	0	391	499	NaN	0	858.013213146478	k	NaN	2	NaN	391
7	1	32	1	NaN	0	392	500	NaN	0.25	2078.75666301697	k	NaN	2	NaN	392
7	1	33	0	1	0	393	382	11	0.75	2295.04414391704	j	0	1	2	393
7	1	34	1	NaN	0	394	501	NaN	NaN	NaN	NaN	NaN	NaN	NaN	NaN
7	1	35	0	0.25	0	395	384	11	1	1362.84861085005	k	0	2	2	395
7	1	36	0	0.5	0	396	385	11	0.5	1479.87263486721	k	1	2	2	385
7	1	37	0	1	0	397	386	11	0.25	1861.44007905386	j	0	1	2	397
7	1	38	0	0.25	0	398	497	11	0.75	1460.9256638214	k	0	2	2	398
7	1	39	0	0.25	0	399	498	11	0.25	2154.32888292708	j	0	1	1	399
7	1	40	1	NaN	0	400	502	NaN	NaN	NaN	NaN	NaN	NaN	NaN	NaN
7	1	41	0	0	0	401	391	10	1	2030.76058905572	k	0	2	2	401
7	1	42	1	NaN	0	402	503	NaN	0.5	1157.89765701629	k	NaN	2	NaN	402
7	1	43	0	0.25	0	403	392	11	0	2181.21098610573	j	0	1	2	403
7	1	44	1	NaN	0	404	504	NaN	0.5	2243.78483183682	j	NaN	1	NaN	404
7	1	45	1	NaN	0	405	505	NaN	1	1506.46494794637	j	NaN	1	NaN	505
7	1	46	0	NaN	1	406	394	12	0.5	1544.74847903475	k	0	2	NaN	406
7	1	47	1	NaN	0	407	506	NaN	0.5	1574.22650489025	j	NaN	1	NaN	407
7	1	48	0	NaN	1	408	400	8	0	1591.41541202553	k	0	2	NaN	408
7	1	49	0	0.5	0	409	402	7	1	2053.61430998892	j	0	1	2	409
7	1	50	1	NaN	0	410	507	NaN	NaN	NaN	NaN	NaN	NaN	NaN	NaN
7	1	51	0	0.5	0	411	404	7	0.5	2057.72188305855	j	1	1	1	404
7	1	52	1	NaN	0	412	508	NaN	0.25	1688.00953216851	j	NaN	1	NaN	508
7	1	53	0	1	0	413	505	8	1	1624.63887408376	j	1	1	1	505
7	1	54	1	NaN	0	414	509	NaN	0	2341.13690489903	j	NaN	1	NaN	414
7	1	55	1	NaN	0	415	510	NaN	0.75	1652.83211413771	k	NaN	2	NaN	510
7	1	56	1	NaN	0	416	511	NaN	0.75	2281.5465470776	k	NaN	2	NaN	511
7	1	57	0	0.5	0	417	407	10	0.75	1856.64789495058	k	0	2	1	417
7	1	58	0	NaN	1	418	410	8	0.75	2089.05195491388	j	1	1	NaN	410
7	1	59	1	NaN	0	419	512	NaN	0.75	1960.44199704193	k	NaN	2	NaN	419
7	1	60	1	NaN	0	420	513	NaN	0	2367.44190589525	k	NaN	2	NaN	420
7	1	61	0	0.25	0	421	508	9	1	1943.34619003348	j	0	1	1	421
7	1	62	1	NaN	0	422	514	NaN	1	2022.53070892766	j	NaN	1	NaN	422
7	1	63	0	0	0	423	414	9	0.5	1597.8539721109	j	0	1	1	423
7	1	64	0	0.75	0	424	510	9	0.75	1774.280219106	j	1	1	2	510
7	1	65	0	0.75	0	425	511	9	0.75	1845.68975702859	j	1	1	2	511
7	1	66	1	NaN	0	426	515	NaN	NaN	NaN	NaN	NaN	NaN	NaN	NaN
7	1	67	0	0.75	0	427	419	8	0.75	1225.52291909233	k	1	2	2	419
7	1	68	1	NaN	0	428	516	NaN	0.25	2175.87415897287	j	NaN	1	NaN	516
7	1	69	1	NaN	0	429	517	NaN	NaN	NaN	NaN	NaN	NaN	NaN	NaN
7	1	70	1	NaN	0	430	518	NaN	0.5	1596.57443710603	k	NaN	2	NaN	430
7	1	71	0	0	0	431	420	11	0	2036.27006011084	k	1	2	2	420
7	1	72	0	1	0	432	422	10	NaN	NaN	NaN	NaN	NaN	1	NaN
7	1	73	1	NaN	0	433	519	NaN	1	1159.47139519267	j	NaN	1	NaN	519
7	1	74	0	NaN	1	434	426	8	0.75	2223.87797990814	j	1	1	NaN	426
7	1	75	1	NaN	0	435	520	NaN	0.75	1798.98332501762	j	NaN	1	NaN	435
7	1	76	0	0.25	0	436	516	8	0.25	2246.75633083098	k	1	2	1	516
7	1	77	1	NaN	0	437	521	NaN	NaN	NaN	NaN	NaN	NaN	NaN	NaN
7	1	78	1	NaN	0	438	522	NaN	0	1609.63659803383	k	NaN	2	NaN	522
7	1	79	0	NaN	1	439	429	10	0.5	1399.53203196637	k	0	2	NaN	439
7	1	80	1	NaN	0	440	523	NaN	0	1142.77533395216	k	NaN	2	NaN	440
7	1	81	1	NaN	0	441	524	NaN	1	2147.70885091275	j	NaN	1	NaN	441
7	1	82	0	0.5	0	442	430	12	0.25	2122.33161204495	j	0	1	2	442
7	1	83	1	NaN	0	443	525	NaN	0.5	1561.21004093438	j	NaN	1	NaN	525
7	1	84	0	1	0	444	519	11	1	1568.50009597838	j	1	1	1	519
7	1	85	0	0.75	0	445	435	10	0.75	1566.2619790528	j	1	1	1	435
7	1	86	0	NaN	1	446	437	9	NaN	NaN	NaN	NaN	NaN	NaN	NaN
7	1	87	0	0	0	447	522	9	0.75	1578.47825507633	j	0	1	2	447
7	1	88	1	NaN	0	448	526	NaN	0.5	1400.64279688522	j	NaN	1	NaN	526
7	1	89	0	0	0	449	440	9	1	1150.25459416211	j	0	1	2	449
7	1	90	1	NaN	0	450	527	NaN	1	1556.87765101902	k	NaN	2	NaN	527
7	2	1	1	NaN	0	1	121	NaN	0.5	1299.44898304529	j	NaN	1	NaN	1
7	2	2	1	NaN	0	2	122	NaN	0.75	1784.89652602002	k	NaN	2	NaN	122
7	2	3	1	NaN	0	3	123	NaN	0.5	1192.52560893074	k	NaN	2	NaN	123
7	2	4	1	NaN	0	4	124	NaN	0.25	1911.22376709245	j	NaN	1	NaN	4
7	2	5	1	NaN	0	5	125	NaN	0.75	1319.04180301353	j	NaN	1	NaN	125
7	2	6	1	NaN	0	6	126	NaN	0.5	1419.25768996589	j	NaN	1	NaN	6
7	2	7	1	NaN	0	7	127	NaN	0.25	1241.34543095715	k	NaN	2	NaN	127
7	2	8	1	NaN	0	8	128	NaN	0.25	1031.59995400347	j	NaN	1	NaN	128
7	2	9	0	0.5	0	9	1	8	0.5	1915.952389827	k	0	2	1	9
7	2	10	0	0.75	0	10	122	8	0.75	1954.86714295112	k	1	2	2	122
7	2	11	1	NaN	0	11	129	NaN	0.5	1723.33727800287	k	NaN	2	NaN	129
7	2	12	1	NaN	0	12	130	NaN	0.25	2183.56312997639	j	NaN	1	NaN	130
7	2	13	0	0.5	0	13	123	10	0.5	1544.56822597422	j	0	1	2	13
7	2	14	1	NaN	0	14	131	NaN	0.5	1917.79119893909	k	NaN	2	NaN	131
7	2	15	0	0.25	0	15	4	11	0.75	1942.04548094422	k	0	2	1	15
7	2	16	1	NaN	0	16	132	NaN	1	2107.93293709867	k	NaN	2	NaN	132
7	2	17	0	0.75	0	17	125	12	0.75	2251.69328111224	k	1	2	1	125
7	2	18	1	NaN	0	18	133	NaN	0.75	1659.4026829116	k	NaN	2	NaN	133
7	2	19	0	0.5	0	19	6	13	NaN	NaN	NaN	NaN	NaN	1	NaN
7	2	20	1	NaN	0	20	134	NaN	0.5	1980.02493800595	j	NaN	1	NaN	134
7	2	21	0	0.25	0	21	127	14	0.75	1212.02228311449	k	0	2	2	21
7	2	22	1	NaN	0	22	135	NaN	0.25	1504.3706628494	k	NaN	2	NaN	22
7	2	23	0	0.25	0	23	128	15	0.5	1727.65950183384	k	0	2	1	23
7	2	24	1	NaN	0	24	136	NaN	0	1687.38489691168	j	NaN	1	NaN	136
7	2	25	0	0.5	0	25	129	14	0.75	1763.44752009027	j	0	1	2	25
7	2	26	0	0.25	0	26	130	14	0.25	1388.32531496882	k	1	2	1	130
7	2	27	1	NaN	0	27	137	NaN	0.25	978.66518702358	k	NaN	2	NaN	27
7	2	28	1	NaN	0	28	138	NaN	0.75	1729.6990158502	k	NaN	2	NaN	138
7	2	29	0	0.5	0	29	131	15	0.5	1991.14329786971	k	1	2	2	131
7	2	30	0	0.75	0	30	133	12	1	1391.4294380229	k	0	2	2	30
7	2	31	0	1	0	31	132	15	0.25	1972.15300705284	j	0	1	2	31
7	2	32	0	0.5	0	32	134	12	0.5	1716.56651189551	k	1	2	1	134
7	2	33	1	NaN	0	33	139	NaN	0	1743.26802091673	j	NaN	1	NaN	139
7	2	34	1	NaN	0	34	140	NaN	0	2102.63646696694	j	NaN	1	NaN	140
7	2	35	0	0	0	35	136	11	1	1572.1683499869	k	0	2	1	35
7	2	36	1	NaN	0	36	141	NaN	0.75	1827.60555995628	j	NaN	1	NaN	141
7	2	37	0	0.25	0	37	22	15	0.25	906.258658971637	k	1	2	2	22
7	2	38	0	0.75	0	38	138	10	NaN	NaN	NaN	NaN	NaN	2	NaN
7	2	39	1	NaN	0	39	142	NaN	1	1565.19676488824	j	NaN	1	NaN	142
7	2	40	0	0.25	0	40	27	13	0	1652.55575813353	k	0	2	2	40
7	2	41	1	NaN	0	41	143	NaN	1	1667.44842100888	k	NaN	2	NaN	41
7	2	42	1	NaN	0	42	144	NaN	0.75	1673.15768194385	k	NaN	2	NaN	144
7	2	43	0	0	0	43	139	10	0.75	1103.39916590601	k	0	2	1	43
7	2	44	0	0	0	44	140	10	0.75	1478.06259500794	k	0	2	1	44
7	2	45	0	0.75	0	45	141	9	0.75	1813.2264809683	j	1	1	1	141
7	2	46	1	NaN	0	46	145	NaN	0.75	1531.44168714061	j	NaN	1	NaN	46
7	2	47	0	1	0	47	142	8	1	1532.01355296187	j	0	1	1	47
7	2	48	1	NaN	0	48	146	NaN	0.5	1728.61381201074	j	NaN	1	NaN	48
7	2	49	0	1	0	49	41	8	1	1286.49844694883	j	1	1	2	41
7	2	50	1	NaN	0	50	147	NaN	0.25	1372.23579385318	k	NaN	2	NaN	147
7	2	51	0	0.75	0	51	144	9	1	850.278062978759	j	0	1	2	51
7	2	52	1	NaN	0	52	148	NaN	1	943.133105989546	j	NaN	1	NaN	52
7	2	53	1	NaN	0	53	149	NaN	0.5	1084.88610992208	j	NaN	1	NaN	149
7	2	54	0	0.75	0	54	46	8	1	1842.40029891953	k	0	2	1	54
7	2	55	0	0.5	0	55	48	7	0.25	1495.84250198677	k	0	2	1	55
7	2	56	1	NaN	0	56	150	NaN	0	1613.10124094598	j	NaN	1	NaN	150
7	2	57	1	NaN	0	57	151	NaN	0.25	2268.06397899054	k	NaN	2	NaN	57
7	2	58	0	0.25	0	58	147	8	0	1451.12729188986	j	0	1	2	58
7	2	59	0	1	0	59	52	7	1	1800.37055606954	k	1	2	1	52
7	2	60	1	NaN	0	60	152	NaN	0	1894.61846812628	k	NaN	2	NaN	152
7	2	61	1	NaN	0	61	153	NaN	0.5	2014.37260792591	k	NaN	2	NaN	153
7	2	62	1	NaN	0	62	154	NaN	0	2117.8982721176	k	NaN	2	NaN	154
7	2	63	1	NaN	0	63	155	NaN	0.25	1987.89556510746	k	NaN	2	NaN	155
7	2	64	1	NaN	0	64	156	NaN	0.25	1708.86361598969	k	NaN	2	NaN	156
7	2	65	0	0.5	0	65	149	12	0.5	1587.79723802581	k	0	2	1	65
7	2	66	1	NaN	0	66	157	NaN	0	2194.83562395908	j	NaN	1	NaN	157
7	2	67	0	0	0	67	150	11	0.75	1810.01501297578	k	0	2	1	67
7	2	68	0	0.25	0	68	57	11	0.5	2290.38208699785	k	0	2	2	68
7	2	69	0	0	0	69	152	9	0.5	2072.92032591067	j	0	1	2	69
7	2	70	1	NaN	0	70	158	NaN	0.75	1561.36776297353	j	NaN	1	NaN	158
7	2	71	0	0.5	0	71	153	10	0.5	1392.35784299672	j	0	1	2	71
7	2	72	1	NaN	0	72	159	NaN	0.75	1830.08971298113	j	NaN	1	NaN	159
7	2	73	0	0	0	73	154	11	0.5	1252.50047119334	k	0	2	2	73
7	2	74	1	NaN	0	74	160	NaN	0.75	1154.32553295977	k	NaN	2	NaN	160
7	2	75	1	NaN	0	75	161	NaN	0.75	1904.7406190075	j	NaN	1	NaN	75
7	2	76	1	NaN	0	76	162	NaN	0	1937.62306496501	j	NaN	1	NaN	76
7	2	77	0	0.25	0	77	155	14	0.75	2102.83228498884	k	0	2	2	77
7	2	78	1	NaN	0	78	163	NaN	0	2176.47115304135	j	NaN	1	NaN	163
7	2	79	0	0.25	0	79	156	15	0.25	1695.10631612502	k	1	2	2	156
7	2	80	1	NaN	0	80	164	NaN	1	2391.36052899994	j	NaN	1	NaN	164
7	2	81	0	0	0	81	157	15	1	2180.8513160795	k	0	2	1	81
7	2	82	1	NaN	0	82	165	NaN	0.25	2108.67493902333	k	NaN	2	NaN	165
7	2	83	0	0.75	0	83	158	13	1	2076.68387703598	k	0	2	1	83
7	2	84	0	0.75	0	84	160	10	0	2013.98488995619	j	0	1	2	84
7	2	85	1	NaN	0	85	166	NaN	0	1997.62284406461	k	NaN	2	NaN	85
7	2	86	0	0.75	0	86	159	14	0	2037.95262705535	j	0	1	1	86
7	2	87	1	NaN	0	87	167	NaN	0	1924.49985607527	k	NaN	2	NaN	87
7	2	88	1	NaN	0	88	168	NaN	0.25	1500.62171416357	k	NaN	2	NaN	168
7	2	89	0	0.75	0	89	75	14	0.75	987.734326859936	k	1	2	1	75
7	2	90	0	0	0	90	76	14	1	1691.22506305575	j	0	1	1	90
10	1	1	1	NaN	0	1	121	NaN	0.25	1215.37983976305	j	NaN	1	NaN	1
10	1	2	1	NaN	0	2	122	NaN	0.25	1593.03422225639	j	NaN	1	NaN	2
10	1	3	1	NaN	0	3	123	NaN	0	1613.71948290616	k	NaN	2	NaN	123
10	1	4	1	NaN	0	4	124	NaN	0.75	1509.09692421556	k	NaN	2	NaN	124
10	1	5	1	NaN	0	5	125	NaN	0.75	1908.13540481031	k	NaN	2	NaN	125
10	1	6	1	NaN	0	6	126	NaN	0.75	1748.40122880414	k	NaN	2	NaN	6
10	1	7	1	NaN	0	7	127	NaN	0	2282.47564379126	k	NaN	2	NaN	127
10	1	8	0	0.25	0	8	1	7	0.25	2041.84267576784	k	1	2	1	1
10	1	9	0	0.25	0	9	2	7	0.25	2138.08382395655	k	1	2	1	2
10	1	10	1	NaN	0	10	128	NaN	0.5	1129.57059498876	j	NaN	1	NaN	10
10	1	11	1	NaN	0	11	129	NaN	0.25	1936.71691929922	j	NaN	1	NaN	11
10	1	12	1	NaN	0	12	130	NaN	0.5	2048.23560314253	k	NaN	2	NaN	130
10	1	13	0	0	0	13	123	10	0.5	2143.52998510003	k	0	2	2	13
10	1	14	1	NaN	0	14	131	NaN	NaN	NaN	NaN	NaN	NaN	NaN	NaN
10	1	15	0	0.75	0	15	124	11	0.75	1875.77129295096	j	1	1	2	124
10	1	16	1	NaN	0	16	132	NaN	0.75	1372.64662794769	k	NaN	2	NaN	16
10	1	17	0	0.75	0	17	125	12	0.75	2257.36398482695	j	1	1	2	125
10	1	18	1	NaN	0	18	133	NaN	0.25	2025.53340699524	j	NaN	1	NaN	133
10	1	19	0	0	0	19	127	12	NaN	NaN	NaN	NaN	NaN	2	NaN
10	1	20	0	0.75	0	20	6	14	0	2229.52783294022	k	0	2	2	20
10	1	21	0	0.5	0	21	10	11	0.5	1059.63048804551	j	1	1	1	10
10	1	22	0	0.25	0	22	11	11	0.75	1531.01410903037	k	0	2	1	22
10	1	23	1	NaN	0	23	134	NaN	1	2058.09503840283	k	NaN	2	NaN	134
10	1	24	0	0.5	0	24	130	12	0.5	1608.68800617754	j	1	1	2	130
10	1	25	1	NaN	0	25	135	NaN	0.25	2078.87690700591	j	NaN	1	NaN	135
10	1	26	0	0.75	0	26	16	10	0.75	1007.16472929344	j	1	1	2	16
10	1	27	0	NaN	1	27	14	13	0.5	1427.97168903053	k	0	2	NaN	27
10	1	28	1	NaN	0	28	136	NaN	0.75	1794.75460899994	k	NaN	2	NaN	28
10	1	29	0	0.25	0	29	133	11	0	1098.34037674591	j	0	1	1	29
10	1	30	1	NaN	0	30	137	NaN	1	1822.34439114109	k	NaN	2	NaN	30
10	1	31	1	NaN	0	31	138	NaN	0.75	1439.25976101309	k	NaN	2	NaN	31
10	1	32	0	1	0	32	134	9	1	2372.45370866731	k	1	2	2	134
10	1	33	1	NaN	0	33	139	NaN	0.25	1580.56306885555	j	NaN	1	NaN	139
10	1	34	0	0.25	0	34	135	9	0.25	1579.02749720961	j	1	1	1	135
10	1	35	1	NaN	0	35	140	NaN	0.5	1993.1283951737	k	NaN	2	NaN	35
10	1	36	0	0.75	0	36	28	8	0.25	2055.87551603094	j	0	1	2	36
10	1	37	0	1	0	37	30	7	1	1368.73139487579	j	1	1	2	30
10	1	38	1	NaN	0	38	141	NaN	0.75	1710.02099616453	k	NaN	2	NaN	38
10	1	39	1	NaN	0	39	142	NaN	0.5	1123.26067592949	k	NaN	2	NaN	39
10	1	40	0	0.75	0	40	31	9	0.5	1417.33604809269	k	0	2	2	40
10	1	41	0	0.25	0	41	139	8	1	1286.82690998539	k	0	2	1	41
10	1	42	1	NaN	0	42	143	NaN	0	1644.46835964918	k	NaN	2	NaN	143
10	1	43	0	0.5	0	43	35	8	0.25	1784.69550982118	j	0	1	2	43
10	1	44	1	NaN	0	44	144	NaN	0.5	1625.642336905	k	NaN	2	NaN	44
10	1	45	0	0.75	0	45	38	7	0.75	1255.21284714341	k	1	2	2	38
10	1	46	1	NaN	0	46	145	NaN	0	1043.0877590552	j	NaN	1	NaN	145
10	1	47	0	0.5	0	47	39	8	0.5	1501.36923510581	j	1	1	2	39
10	1	48	1	NaN	0	48	146	NaN	1	1722.61511394754	j	NaN	1	NaN	146
10	1	49	0	0	0	49	143	7	0	1374.3620570749	k	1	2	2	143
10	1	50	1	NaN	0	50	147	NaN	0.5	2191.15018006414	j	NaN	1	NaN	50
10	1	51	1	NaN	0	51	148	NaN	0.75	1527.45298668742	j	NaN	1	NaN	148
10	1	52	0	0.5	0	52	44	8	0.5	1885.95409877598	j	1	1	2	44
10	1	53	0	0	0	53	145	7	1	1542.82809607685	k	0	2	1	53
10	1	54	1	NaN	0	54	149	NaN	0	1997.29710584506	k	NaN	2	NaN	149
10	1	55	0	1	0	55	146	7	1	1206.21339697391	j	1	1	1	146
10	1	56	1	NaN	0	56	150	NaN	1	1852.55204699934	j	NaN	1	NaN	56
10	1	57	0	0.5	0	57	50	7	NaN	NaN	NaN	NaN	NaN	1	NaN
10	1	58	1	NaN	0	58	151	NaN	0.75	863.827917259187	k	NaN	2	NaN	58
10	1	59	1	NaN	0	59	152	NaN	0.25	1029.19524302706	j	NaN	1	NaN	152
10	1	60	0	0.75	0	60	148	9	0.75	979.323366656899	j	1	1	1	148
10	1	61	1	NaN	0	61	153	NaN	1	952.352751046419	k	NaN	2	NaN	61
10	1	62	1	NaN	0	62	154	NaN	0.25	1353.65174338222	k	NaN	2	NaN	62
10	1	63	0	0	0	63	149	9	0.25	1264.10919427872	j	0	1	2	63
10	1	64	1	NaN	0	64	155	NaN	1	2174.92031538859	k	NaN	2	NaN	155
10	1	65	0	1	0	65	56	9	1	1158.27146312222	k	1	2	1	56
10	1	66	1	NaN	0	66	156	NaN	0.5	1006.07748888433	j	NaN	1	NaN	156
10	1	67	1	NaN	0	67	157	NaN	0.75	1617.08622984588	j	NaN	1	NaN	157
10	1	68	1	NaN	0	68	158	NaN	0	1311.5146770142	j	NaN	1	NaN	158
10	1	69	0	0.75	0	69	58	11	0.75	980.897167231888	j	1	1	2	58
10	1	70	0	0.25	0	70	152	11	0.25	1277.05347212031	j	1	1	1	152
10	1	71	0	1	0	71	61	10	1	1081.31213719025	k	1	2	2	61
10	1	72	1	NaN	0	72	159	NaN	0.75	1782.15393563733	k	NaN	2	NaN	159
10	1	73	0	0.25	0	73	62	11	0.25	1334.08136805519	j	0	1	2	73
10	1	74	0	1	0	74	155	10	0	1570.92186808586	k	0	2	2	74
10	1	75	0	0.5	0	75	156	9	0	1481.92303208634	k	0	2	1	75
10	1	76	1	NaN	0	76	160	NaN	0	1128.49336303771	k	NaN	2	NaN	160
10	1	77	0	0.75	0	77	157	10	0.25	1646.48232003674	k	0	2	1	77
10	1	78	1	NaN	0	78	161	NaN	0.75	1875.89671788737	k	NaN	2	NaN	78
10	1	79	1	NaN	0	79	162	NaN	0.25	1107.28885326535	j	NaN	1	NaN	162
10	1	80	0	0	0	80	158	12	0.5	839.698983822018	k	0	2	1	80
10	1	81	0	0.75	0	81	159	9	0.75	1747.2520316951	j	1	1	2	159
10	1	82	1	NaN	0	82	163	NaN	0.25	1628.81310516968	k	NaN	2	NaN	163
10	1	83	0	0	0	83	160	7	1	1569.7601758875	k	0	2	2	83
10	1	84	1	NaN	0	84	164	NaN	0.25	1897.89864327759	k	NaN	2	NaN	84
10	1	85	1	NaN	0	85	165	NaN	0	2335.6544743292	j	NaN	1	NaN	85
10	1	86	1	NaN	0	86	166	NaN	0	1008.02398007363	k	NaN	2	NaN	166
10	1	87	0	0.75	0	87	78	9	0.75	1263.5560343042	k	1	2	2	78
10	1	88	1	NaN	0	88	167	NaN	1	1572.50808691606	j	NaN	1	NaN	88
10	1	89	0	0.25	0	89	162	10	0.25	1396.97174215689	k	1	2	1	162
10	1	90	0	0.25	0	90	163	8	0.25	1436.18691992015	j	1	1	2	163
10	2	1	1	NaN	0	181	301	NaN	0.75	1575.98006492481	k	NaN	2	NaN	181
10	2	2	1	NaN	0	182	302	NaN	1	1588.7224888429	k	NaN	2	NaN	302
10	2	3	1	NaN	0	183	303	NaN	1	1684.0335028246	j	NaN	1	NaN	303
10	2	4	1	NaN	0	184	304	NaN	0	2321.91903004423	j	NaN	1	NaN	304
10	2	5	1	NaN	0	185	305	NaN	0.75	1689.23219200224	k	NaN	2	NaN	185
10	2	6	1	NaN	0	186	306	NaN	1	1894.53002996743	k	NaN	2	NaN	186
10	2	7	1	NaN	0	187	307	NaN	0.5	1260.94305701554	k	NaN	2	NaN	187
10	2	8	1	NaN	0	188	308	NaN	0.75	1588.0027320236	j	NaN	1	NaN	188
10	2	9	0	0.75	0	189	181	8	0	1154.43183481693	k	0	2	2	189
10	2	10	0	1	0	190	302	8	1	1324.02598904446	j	0	1	2	190
10	2	11	0	1	0	191	303	8	NaN	1216.34283615276	NaN	NaN	NaN	1	NaN
10	2	12	1	NaN	0	192	309	NaN	0.75	18.7967992387712	j	NaN	1	NaN	192
10	2	13	1	NaN	0	193	310	NaN	1	1217.70057128742	k	NaN	2	NaN	310
10	2	14	0	0	0	194	304	10	0	1575.63136285171	k	0	2	1	194
10	2	15	1	NaN	0	195	311	NaN	0	1558.08684788644	j	NaN	1	NaN	311
10	2	16	1	NaN	0	196	312	NaN	0	1179.73139695823	j	NaN	1	NaN	196
10	2	17	0	0.75	0	197	185	12	0.25	1746.02722004056	k	0	2	2	197
10	2	18	1	NaN	0	198	313	NaN	0	1097.2179947421	j	NaN	1	NaN	198
10	2	19	0	1	0	199	186	13	1	1542.28471312672	k	1	2	2	186
10	2	20	0	0.5	0	200	187	13	0.5	1733.54056524113	k	1	2	2	187
10	2	21	0	0.75	0	201	188	13	0.75	2227.76560485363	k	1	2	1	188
10	2	22	1	NaN	0	202	314	NaN	1	2050.6443399936	k	NaN	2	NaN	202
10	2	23	0	0.75	0	203	192	11	0.75	1169.43419585004	j	0	1	1	203
10	2	24	1	NaN	0	204	315	NaN	1	1880.31791010872	k	NaN	2	NaN	204
10	2	25	1	NaN	0	205	316	NaN	0	1128.73660726473	j	NaN	1	NaN	316
10	2	26	1	NaN	0	206	317	NaN	1	1448.02242703736	j	NaN	1	NaN	317
10	2	27	0	1	0	207	310	14	1	1284.94484676048	j	1	1	2	310
10	2	28	0	0	0	208	198	10	1	1484.69406506047	k	0	2	1	208
10	2	29	0	0	0	209	311	14	0.25	908.745840191841	j	0	1	1	209
10	2	30	1	NaN	0	210	318	NaN	0	1641.08581189066	k	NaN	2	NaN	318
10	2	31	0	0	0	211	196	15	0.5	1720.6716267392	j	0	1	1	211
10	2	32	0	1	0	212	202	10	1	1511.35190622881	k	1	2	2	202
10	2	33	0	1	0	213	204	9	1	1557.91015503928	j	1	1	2	204
10	2	34	1	NaN	0	214	319	NaN	0.75	2043.97472878918	j	NaN	1	NaN	319
10	2	35	0	0	0	215	316	10	0.75	1283.0376769416	k	0	2	1	215
10	2	36	1	NaN	0	216	320	NaN	0.5	1880.70373004302	k	NaN	2	NaN	216
10	2	37	1	NaN	0	217	321	NaN	0.25	1025.12553194538	j	NaN	1	NaN	217
10	2	38	0	1	0	218	317	12	1	1321.23425090685	j	1	1	1	317
10	2	39	0	0	0	219	318	9	1	824.257948901504	k	0	2	2	219
10	2	40	1	NaN	0	220	322	NaN	1	2109.54282805324	k	NaN	2	NaN	322
10	2	41	1	NaN	0	221	323	NaN	0	1485.98778806627	k	NaN	2	NaN	323
10	2	42	1	NaN	0	222	324	NaN	0.25	1300.00697122887	j	NaN	1	NaN	222
10	2	43	1	NaN	0	223	325	NaN	0.5	2058.88201016933	k	NaN	2	NaN	223
10	2	44	0	0.75	0	224	319	10	0.75	1281.59601101652	j	1	1	1	319
10	2	45	1	NaN	0	225	326	NaN	0.75	1495.78242003918	k	NaN	2	NaN	326
10	2	46	0	0.5	0	226	216	10	0.25	1519.40697431564	k	0	2	2	226
10	2	47	0	0.25	0	227	217	10	0.25	1167.02979663387	j	0	1	1	227
10	2	48	0	1	0	228	322	8	1	1206.60592522472	j	1	1	2	322
10	2	49	0	0	0	229	323	8	0.5	1011.98988500983	j	0	1	2	229
10	2	50	1	NaN	0	230	327	NaN	0.25	1612.20331909135	k	NaN	2	NaN	230
10	2	51	1	NaN	0	231	328	NaN	0.25	2266.17354014888	k	NaN	2	NaN	231
10	2	52	0	0.25	0	232	222	10	0.25	1377.06205295399	k	0	2	1	232
10	2	53	1	NaN	0	233	329	NaN	0.5	1896.36553404853	k	NaN	2	NaN	233
10	2	54	1	NaN	0	234	330	NaN	0.75	2215.90492222458	k	NaN	2	NaN	234
10	2	55	1	NaN	0	235	331	NaN	0	2015.58368094265	k	NaN	2	NaN	331
10	2	56	1	NaN	0	236	332	NaN	0.25	1534.76926591247	k	NaN	2	NaN	236
10	2	57	0	0.5	0	237	223	14	0	1239.60341513157	j	0	1	2	237
10	2	58	0	0.75	0	238	326	13	0	1059.56278508529	j	0	1	2	238
10	2	59	0	0.25	0	239	230	9	0.25	1043.84245490655	j	0	1	2	239
10	2	60	0	0.25	0	240	231	9	0.25	1250.64741820097	k	1	2	2	231
10	2	61	1	NaN	0	241	333	NaN	0.75	1393.28500721604	k	NaN	2	NaN	241
10	2	62	0	0.5	0	242	233	9	0.75	2167.04812692478	j	0	1	2	242
10	2	63	0	0.75	0	243	234	9	0.75	1502.78798770159	j	1	1	2	234
10	2	64	1	NaN	0	244	334	NaN	1	1164.88059610128	k	NaN	2	NaN	334
10	2	65	1	NaN	0	245	335	NaN	0.25	1307.61271808296	k	NaN	2	NaN	245
10	2	66	1	NaN	0	246	336	NaN	0	1592.9584982805	j	NaN	1	NaN	246
10	2	67	1	NaN	0	247	337	NaN	0.75	1729.43926602602	k	NaN	2	NaN	247
10	2	68	0	0	0	248	331	13	1	1103.36390975863	j	0	1	2	248
10	2	69	0	0.25	0	249	236	13	1	1084.65645322576	k	0	2	2	249
10	2	70	1	NaN	0	250	338	NaN	0	2074.28315095603	j	NaN	1	NaN	338
10	2	71	1	NaN	0	251	339	NaN	0.25	1602.10326081142	k	NaN	2	NaN	251
10	2	72	1	NaN	0	252	340	NaN	0.75	1475.73979618028	j	NaN	1	NaN	340
10	2	73	0	0.75	0	253	241	12	0.5	968.897600192577	j	0	1	2	253
10	2	74	0	1	0	254	334	10	1	885.843796189874	k	1	2	2	334
10	2	75	0	0.25	0	255	245	10	0.25	2053.54458512738	j	0	1	2	255
10	2	76	1	NaN	0	256	341	NaN	0.25	1517.0728857629	j	NaN	1	NaN	341
10	2	77	1	NaN	0	257	342	NaN	0.75	1203.48982932046	k	NaN	2	NaN	257
10	2	78	1	NaN	0	258	343	NaN	0.75	1081.31860103458	k	NaN	2	NaN	343
10	2	79	0	0	0	259	246	13	0.5	1543.3978959918	j	0	1	1	259
10	2	80	0	0.75	0	260	247	13	0.75	1799.18739385903	k	1	2	2	247
10	2	81	1	NaN	0	261	344	NaN	0.75	1797.95805923641	k	NaN	2	NaN	344
10	2	82	0	0.75	0	262	340	10	0.75	1180.43369008228	k	1	2	1	340
10	2	83	0	0	0	263	338	13	1	2212.04572217539	j	0	1	1	263
10	2	84	1	NaN	0	264	345	NaN	0.5	1620.72954978794	k	NaN	2	NaN	345
10	2	85	0	0.25	0	265	251	14	0.25	1234.29423570633	j	1	1	2	251
10	2	86	1	NaN	0	266	346	NaN	0	2386.75607088953	k	NaN	2	NaN	266
10	2	87	1	NaN	0	267	347	NaN	1	1521.83374809101	j	NaN	1	NaN	267
10	2	88	0	0.25	0	268	341	12	0.25	1680.81507598981	k	1	2	1	341
10	2	89	1	NaN	0	269	348	NaN	0.5	1878.77455260605	k	NaN	2	NaN	348
10	2	90	1	NaN	0	270	349	NaN	0	1407.38684916869	k	NaN	2	NaN	349
11	1	1	1	NaN	0	1	121	NaN	0.75	1082.43360510096	k	NaN	2	NaN	1
11	1	2	1	NaN	0	2	122	NaN	0.25	1174.82908582315	j	NaN	1	NaN	122
11	1	3	1	NaN	0	3	123	NaN	0.25	915.450570173562	k	NaN	2	NaN	3
11	1	4	1	NaN	0	4	124	NaN	0.5	1080.28564509004	k	NaN	2	NaN	4
11	1	5	1	NaN	0	5	125	NaN	0	958.710019942373	j	NaN	1	NaN	5
11	1	6	1	NaN	0	6	126	NaN	0.5	886.479855049402	k	NaN	2	NaN	6
11	1	7	1	NaN	0	7	127	NaN	1	738.516316283494	k	NaN	2	NaN	127
11	1	8	0	0.75	0	8	1	7	0.75	929.926134180278	j	1	1	2	1
11	1	9	0	0.25	0	9	122	7	0.5	1160.92754295096	k	0	2	1	9
11	1	10	0	0.25	0	10	3	7	1	910.773432813585	k	0	2	2	10
11	1	11	1	NaN	0	11	128	NaN	0	1061.45353894681	k	NaN	2	NaN	11
11	1	12	1	NaN	0	12	129	NaN	0.25	1001.78958335891	j	NaN	1	NaN	12
11	1	13	0	0.5	0	13	4	9	0.5	678.765115793794	k	1	2	2	4
11	1	14	1	NaN	0	14	130	NaN	0.75	1037.52491483465	j	NaN	1	NaN	14
11	1	15	1	NaN	0	15	131	NaN	0.5	925.062940921634	k	NaN	2	NaN	131
11	1	16	1	NaN	0	16	132	NaN	0.75	969.589043874294	k	NaN	2	NaN	16
11	1	17	0	1	0	17	127	10	1	713.038200046867	k	1	2	2	127
11	1	18	0	0	0	18	5	13	0.75	806.692549027503	k	0	2	1	18
11	1	19	0	0.5	0	19	6	13	0.5	948.812269140035	k	1	2	2	6
11	1	20	0	0	0	20	11	9	0.5	923.361273016781	j	0	1	2	20
11	1	21	1	NaN	0	21	133	NaN	0.5	808.936325833201	k	NaN	2	NaN	21
11	1	22	0	0.25	0	22	12	10	0	661.309373099357	j	0	1	1	22
11	1	23	1	NaN	0	23	134	NaN	0.5	834.164661355317	k	NaN	2	NaN	134
11	1	24	1	NaN	0	24	135	NaN	0.75	925.758020952344	k	NaN	2	NaN	135
11	1	25	0	0.75	0	25	14	11	0.75	915.879276115447	j	1	1	1	14
11	1	26	0	0.75	0	26	16	10	0.25	777.528515085578	k	0	2	2	26
11	1	27	1	NaN	0	27	136	NaN	1	942.084623966366	j	NaN	1	NaN	136
11	1	28	0	0.5	0	28	131	13	0.5	898.59510678798	k	1	2	2	131
11	1	29	1	NaN	0	29	137	NaN	0	991.064188070595	j	NaN	1	NaN	29
11	1	30	0	0.5	0	30	21	9	0	983.946849126369	k	0	2	2	30
11	1	31	1	NaN	0	31	138	NaN	0.25	932.428957894444	k	NaN	2	NaN	31
11	1	32	0	0.5	0	32	134	9	0.75	1210.66563390195	j	0	1	2	32
11	1	33	0	0.75	0	33	135	9	0.75	970.92984104529	j	1	1	2	135
11	1	34	1	NaN	0	34	139	NaN	0	1144.54086404294	k	NaN	2	NaN	139
11	1	35	0	1	0	35	136	8	1	1166.95916978642	j	1	1	1	136
11	1	36	1	NaN	0	36	140	NaN	0.5	1116.00271891803	k	NaN	2	NaN	36
11	1	37	0	0	0	37	29	8	0	1272.85733586177	j	0	1	1	37
11	1	38	1	NaN	0	38	141	NaN	0.5	926.310520153493	k	NaN	2	NaN	141
11	1	39	0	0.25	0	39	31	8	0.75	1037.56689280272	k	0	2	2	39
11	1	40	1	NaN	0	40	142	NaN	0.75	945.220298599452	j	NaN	1	NaN	142
11	1	41	0	0	0	41	139	7	0.25	1073.86565301567	j	0	1	2	41
11	1	42	1	NaN	0	42	143	NaN	0.75	848.379859700799	k	NaN	2	NaN	42
11	1	43	1	NaN	0	43	144	NaN	0.75	966.296921949834	k	NaN	2	NaN	43
11	1	44	1	NaN	0	44	145	NaN	0.25	882.797515951097	j	NaN	1	NaN	145
11	1	45	1	NaN	0	45	146	NaN	0.25	800.369434058666	j	NaN	1	NaN	146
11	1	46	1	NaN	0	46	147	NaN	1	990.838149096817	j	NaN	1	NaN	147
11	1	47	0	0.5	0	47	36	11	0.5	1024.26821785048	k	1	2	2	36
11	1	48	1	NaN	0	48	148	NaN	1	996.914112940431	k	NaN	2	NaN	148
11	1	49	0	0.5	0	49	141	11	0.75	875.186961144209	j	0	1	2	49
11	1	50	0	0.75	0	50	142	10	0.75	1327.15734606609	k	1	2	1	142
11	1	51	1	NaN	0	51	149	NaN	1	1087.85498607904	k	NaN	2	NaN	149
11	1	52	0	0.75	0	52	42	10	0.5	1372.08011932671	k	0	2	2	52
11	1	53	1	NaN	0	53	150	NaN	1	1059.17784618214	j	NaN	1	NaN	53
11	1	54	0	0.25	0	54	145	10	0.5	1422.62109043077	k	0	2	1	54
11	1	55	0	0.75	0	55	43	12	0.75	917.148154228926	j	1	1	2	43
11	1	56	1	NaN	0	56	151	NaN	0	1145.31196886674	j	NaN	1	NaN	56
11	1	57	1	NaN	0	57	152	NaN	0.5	792.35313879326	k	NaN	2	NaN	57
11	1	58	0	1	0	58	147	12	1	860.238954890519	k	1	2	1	147
11	1	59	1	NaN	0	59	153	NaN	0.25	914.302784949541	k	NaN	2	NaN	153
11	1	60	0	0.25	0	60	146	15	0.25	1161.2127549015	j	1	1	1	146
11	1	61	0	1	0	61	148	13	1	1230.13160098344	k	1	2	2	148
11	1	62	0	1	0	62	149	11	0.5	1189.20596502721	k	0	2	2	62
11	1	63	1	NaN	0	63	154	NaN	0.25	933.558876160532	j	NaN	1	NaN	154
11	1	64	1	NaN	0	64	155	NaN	0.25	810.921132098883	k	NaN	2	NaN	64
11	1	65	0	1	0	65	53	12	1	872.864494100213	j	1	1	1	53
11	1	66	1	NaN	0	66	156	NaN	0	1024.636215996	k	NaN	2	NaN	156
11	1	67	1	NaN	0	67	157	NaN	0.75	694.326750934124	j	NaN	1	NaN	67
11	1	68	0	0	0	68	56	12	0	1145.65569162369	j	0	1	1	68
11	1	69	0	0.5	0	69	57	12	0.5	982.422168832272	k	1	2	2	57
11	1	70	0	0.25	0	70	153	11	0	1121.38668168336	j	0	1	2	70
11	1	71	1	NaN	0	71	158	NaN	1	832.262504380196	k	NaN	2	NaN	71
11	1	72	1	NaN	0	72	159	NaN	0.75	781.904470175505	k	NaN	2	NaN	72
11	1	73	1	NaN	0	73	160	NaN	1	812.069131992757	j	NaN	1	NaN	73
11	1	74	1	NaN	0	74	161	NaN	0.25	1112.07373207435	j	NaN	1	NaN	74
11	1	75	0	0.25	0	75	64	11	0.25	1093.96430896595	j	1	1	2	64
11	1	76	0	0.25	0	76	154	13	0.25	700.700914952904	k	1	2	1	154
11	1	77	1	NaN	0	77	162	NaN	0	1097.20113314688	j	NaN	1	NaN	162
11	1	78	0	0.75	0	78	67	11	0.75	950.986844021827	k	1	2	1	67
11	1	79	0	0	0	79	156	13	0	988.724796101451	k	1	2	2	156
11	1	80	0	1	0	80	71	9	1	652.297278866172	j	1	1	2	71
11	1	81	0	0.75	0	81	72	9	0.75	881.775549147278	k	1	2	2	72
11	1	82	1	NaN	0	82	163	NaN	0	846.245457883924	k	NaN	2	NaN	163
11	1	83	0	1	0	83	73	10	1	852.780669927597	k	1	2	1	73
11	1	84	1	NaN	0	84	164	NaN	0.5	1074.4289602153	k	NaN	2	NaN	84
11	1	85	1	NaN	0	85	165	NaN	0.25	1039.8535230197	k	NaN	2	NaN	165
11	1	86	1	NaN	0	86	166	NaN	0.75	1000.65767578781	k	NaN	2	NaN	86
11	1	87	1	NaN	0	87	167	NaN	0	893.301744945347	k	NaN	2	NaN	167
11	1	88	1	NaN	0	88	168	NaN	0.75	1443.69911029935	k	NaN	2	NaN	168
11	1	89	0	0.25	0	89	74	15	1	833.869270980358	j	0	1	1	89
11	1	90	1	NaN	0	90	169	NaN	1	766.4895048365	j	NaN	1	NaN	90
11	2	1	1	NaN	0	181	301	NaN	0.25	795.011986047029	j	NaN	1	NaN	301
11	2	2	1	NaN	0	182	302	NaN	0	921.244733966887	j	NaN	1	NaN	182
11	2	3	1	NaN	0	183	303	NaN	0.75	1649.87240871415	j	NaN	1	NaN	183
11	2	4	1	NaN	0	184	304	NaN	0.75	876.779515296221	k	NaN	2	NaN	184
11	2	5	1	NaN	0	185	305	NaN	0.75	682.340949773788	j	NaN	1	NaN	185
11	2	6	1	NaN	0	186	306	NaN	0.5	936.56322080642	k	NaN	2	NaN	186
11	2	7	1	NaN	0	187	307	NaN	0.5	980.46957096085	k	NaN	2	NaN	307
11	2	8	0	0.25	0	188	301	7	0.25	1106.14295676351	k	1	2	1	301
11	2	9	1	NaN	0	189	308	NaN	0	919.434918090701	j	NaN	1	NaN	308
11	2	10	0	0	0	190	182	8	0	992.167365737259	k	1	2	1	182
11	2	11	1	NaN	0	191	309	NaN	0.25	924.382233992219	j	NaN	1	NaN	191
11	2	12	1	NaN	0	192	310	NaN	0	732.031856197864	k	NaN	2	NaN	310
11	2	13	0	0.75	0	193	183	10	0.75	785.372592043132	j	0	1	1	193
11	2	14	0	0.75	0	194	184	10	0.75	1454.01823613793	j	0	1	2	194
11	2	15	0	0.75	0	195	185	10	0.75	1259.60780493915	j	1	1	1	185
11	2	16	1	NaN	0	196	311	NaN	0.25	1472.68793778494	j	NaN	1	NaN	196
11	2	17	0	0.5	0	197	186	11	0.5	1071.90289068967	j	1	1	2	186
11	2	18	1	NaN	0	198	312	NaN	0	890.239180065691	k	NaN	2	NaN	312
11	2	19	1	NaN	0	199	313	NaN	0.25	900.841888040304	k	NaN	2	NaN	199
11	2	20	0	0.5	0	200	307	13	0.5	697.272453922778	j	1	1	2	307
11	2	21	1	NaN	0	201	314	NaN	1	919.766799081117	j	NaN	1	NaN	314
11	2	22	0	0	0	202	308	13	0.25	1188.65686701611	k	0	2	1	202
11	2	23	1	NaN	0	203	315	NaN	0.75	1498.07333899662	k	NaN	2	NaN	315
11	2	24	1	NaN	0	204	316	NaN	0	729.740879964083	j	NaN	1	NaN	316
11	2	25	0	0.25	0	205	191	14	0.25	1179.3204289861	j	1	1	1	191
11	2	26	0	0	0	206	310	14	0.75	943.053269758821	k	0	2	2	206
11	2	27	0	0.25	0	207	196	11	0	1435.49340823665	k	0	2	1	207
11	2	28	0	0	0	208	312	10	0	762.190002948046	j	1	1	2	312
11	2	29	0	0.25	0	209	199	10	0.25	1146.6143541038	k	1	2	2	199
11	2	30	1	NaN	0	210	317	NaN	0.5	985.51171971485	k	NaN	2	NaN	317
11	2	31	0	1	0	211	314	10	0	1238.28784981743	k	0	2	1	211
11	2	32	1	NaN	0	212	318	NaN	0.5	1045.72904901579	j	NaN	1	NaN	318
11	2	33	0	0.75	0	213	315	10	0.25	877.873818855733	k	0	2	2	213
11	2	34	1	NaN	0	214	319	NaN	1	913.249515928328	k	NaN	2	NaN	319
11	2	35	1	NaN	0	215	320	NaN	1	791.706625837833	j	NaN	1	NaN	320
11	2	36	1	NaN	0	216	321	NaN	0.75	1045.17267923802	j	NaN	1	NaN	321
11	2	37	0	0	0	217	316	13	0	659.370766952634	k	1	2	1	316
11	2	38	1	NaN	0	218	322	NaN	0.25	857.367196120322	j	NaN	1	NaN	218
11	2	39	0	0.5	0	219	317	9	0.5	807.597178965807	j	1	1	2	317
11	2	40	0	0.5	0	220	318	8	0.5	788.856128696352	k	1	2	1	318
11	2	41	1	NaN	0	221	323	NaN	0.25	1249.89899899811	j	NaN	1	NaN	323
11	2	42	1	NaN	0	222	324	NaN	0	721.82041220367	k	NaN	2	NaN	324
11	2	43	0	1	0	223	319	9	1	798.974889330566	j	1	1	2	319
11	2	44	0	1	0	224	320	9	1	1052.0835891366	k	1	2	1	320
11	2	45	0	0.75	0	225	321	9	0.75	1417.00284695253	k	1	2	1	321
11	2	46	1	NaN	0	226	325	NaN	0.25	952.062177006155	k	NaN	2	NaN	226
11	2	47	0	0.25	0	227	218	9	0.5	901.778791099787	k	0	2	1	227
11	2	48	1	NaN	0	228	326	NaN	0	1179.3725239113	j	NaN	1	NaN	326
11	2	49	0	0.25	0	229	323	8	0.25	1458.44868617132	j	1	1	1	323
11	2	50	1	NaN	0	230	327	NaN	0	1247.3372798413	k	NaN	2	NaN	327
11	2	51	0	0	0	231	324	9	0	1016.23588427901	k	1	2	2	324
11	2	52	1	NaN	0	232	328	NaN	1	1045.97267694771	k	NaN	2	NaN	232
11	2	53	0	0.25	0	233	226	7	0.25	994.507829193026	k	1	2	2	226
11	2	54	1	NaN	0	234	329	NaN	0	1161.15018166602	k	NaN	2	NaN	234
11	2	55	1	NaN	0	235	330	NaN	0.75	1350.68520717323	k	NaN	2	NaN	330
11	2	56	1	NaN	0	236	331	NaN	0.25	989.909643307328	k	NaN	2	NaN	236
11	2	57	0	0	0	237	326	9	0.5	842.709762044251	j	0	1	1	237
11	2	58	1	NaN	0	238	332	NaN	1	991.246705874801	k	NaN	2	NaN	332
11	2	59	0	0	0	239	327	9	1	1487.17255424708	k	0	2	2	239
11	2	60	1	NaN	0	240	333	NaN	0.75	1071.50465482846	k	NaN	2	NaN	240
11	2	61	0	1	0	241	232	9	1	1045.84511741996	k	1	2	2	232
11	2	62	1	NaN	0	242	334	NaN	1	922.923901583999	k	NaN	2	NaN	242
11	2	63	1	NaN	0	243	335	NaN	0.5	1080.90764610097	j	NaN	1	NaN	243
11	2	64	0	0	0	244	234	10	NaN	NaN	NaN	NaN	NaN	2	NaN
11	2	65	0	0.75	0	245	330	10	0.75	714.93424475193	j	1	1	2	330
11	2	66	1	NaN	0	246	336	NaN	0	753.391402773559	j	NaN	1	NaN	246
11	2	67	0	0.25	0	247	236	11	0.25	1029.74336408079	j	1	1	2	236
11	2	68	1	NaN	0	248	337	NaN	1	1110.4319836013	k	NaN	2	NaN	248
11	2	69	1	NaN	0	249	338	NaN	1	1252.04989966005	j	NaN	1	NaN	338
11	2	70	1	NaN	0	250	339	NaN	0	1147.20899285749	k	NaN	2	NaN	339
11	2	71	0	1	0	251	332	13	1	803.10044111684	j	1	1	2	332
11	2	72	0	1	0	252	242	10	1	1208.62730499357	k	1	2	2	242
11	2	73	0	0.5	0	253	243	10	0.5	1462.17320673168	j	1	1	1	243
11	2	74	1	NaN	0	254	340	NaN	0.25	948.573467787355	j	NaN	1	NaN	254
11	2	75	0	0.75	0	255	240	15	0.75	843.130212742835	j	1	1	2	240
11	2	76	0	0	0	256	246	10	0	899.918525014073	j	1	1	1	246
11	2	77	1	NaN	0	257	341	NaN	0.25	867.708223871887	j	NaN	1	NaN	257
11	2	78	1	NaN	0	258	342	NaN	0.75	881.434543989599	k	NaN	2	NaN	342
11	2	79	1	NaN	0	259	343	NaN	0.75	816.453168168664	j	NaN	1	NaN	343
11	2	80	1	NaN	0	260	344	NaN	0	1142.84972473979	j	NaN	1	NaN	344
11	2	81	0	1	0	261	248	13	1	766.854853834957	k	0	2	2	261
11	2	82	0	0	0	262	339	12	0	988.832250237465	k	1	2	2	339
11	2	83	1	NaN	0	263	345	NaN	0.5	1491.41184007749	j	NaN	1	NaN	263
11	2	84	0	1	0	264	338	15	1	1187.13202606887	k	1	2	1	338
11	2	85	0	0.25	0	265	254	11	0.25	1084.43636400625	j	1	1	1	254
11	2	86	1	NaN	0	266	346	NaN	0.5	1104.6290108934	j	NaN	1	NaN	266
11	2	87	0	0.25	0	267	257	10	0.5	757.988835219294	k	0	2	1	267
11	2	88	1	NaN	0	268	347	NaN	1	1189.65805973858	j	NaN	1	NaN	268
11	2	89	0	0.75	0	269	342	11	0.75	940.035187639296	k	1	2	2	342
11	2	90	0	0.75	0	270	343	11	0.5	939.773689955473	k	0	2	1	270
12	1	1	1	NaN	0	1	121	NaN	0.75	2103.65515761077	j	NaN	1	NaN	1
12	1	2	1	NaN	0	2	122	NaN	0.25	1801.52486311272	k	NaN	2	NaN	2
12	1	3	1	NaN	0	3	123	NaN	0	2217.67355222255	j	NaN	1	NaN	3
12	1	4	1	NaN	0	4	124	NaN	0	893.50395090878	j	NaN	1	NaN	124
12	1	5	1	NaN	0	5	125	NaN	0.5	1635.57812478393	j	NaN	1	NaN	5
12	1	6	1	NaN	0	6	126	NaN	0.5	945.717866998166	k	NaN	2	NaN	6
12	1	7	1	NaN	0	7	127	NaN	0	824.983316939324	k	NaN	2	NaN	127
12	1	8	0	0.75	0	8	1	7	0.75	1037.99995873123	k	0	2	1	8
12	1	9	0	0.25	0	9	2	7	0	860.010164324194	j	0	1	2	9
12	1	10	0	0	0	10	3	7	0	1396.2865867652	k	0	2	1	10
12	1	11	1	NaN	0	11	128	NaN	0.5	1186.0738331452	k	NaN	2	NaN	128
12	1	12	1	NaN	0	12	129	NaN	1	1733.88792807236	k	NaN	2	NaN	129
12	1	13	0	0	0	13	124	9	0.25	2195.07618201897	j	0	1	1	13
12	1	14	1	NaN	0	14	130	NaN	0	2228.58836501837	k	NaN	2	NaN	14
12	1	15	1	NaN	0	15	131	NaN	0	1946.36823283508	k	NaN	2	NaN	15
12	1	16	1	NaN	0	16	132	NaN	0.5	1474.97898107395	j	NaN	1	NaN	16
12	1	17	0	0	0	17	127	10	0.5	1327.67299329862	j	0	1	2	17
12	1	18	0	0.5	0	18	5	13	0	1422.40559309721	k	0	2	1	18
12	1	19	0	0.5	0	19	6	13	0	1620.56986195967	k	0	2	2	19
12	1	20	0	0.5	0	20	128	9	0.5	2042.60767810047	j	1	1	2	128
12	1	21	1	NaN	0	21	133	NaN	0.25	1674.00526907295	k	NaN	2	NaN	133
12	1	22	0	1	0	22	129	10	1	1353.45147876069	j	1	1	2	129
12	1	23	1	NaN	0	23	134	NaN	0.5	1239.28545368835	k	NaN	2	NaN	134
12	1	24	1	NaN	0	24	135	NaN	1	1517.45430286974	k	NaN	2	NaN	135
12	1	25	0	0	0	25	14	11	1	1586.29198791459	k	0	2	2	25
12	1	26	0	0.5	0	26	16	10	NaN	NaN	NaN	NaN	NaN	1	NaN
12	1	27	1	NaN	0	27	136	NaN	0.25	806.931745726615	k	NaN	2	NaN	136
12	1	28	0	0	0	28	15	13	0.25	1130.45435165986	j	0	1	2	28
12	1	29	1	NaN	0	29	137	NaN	1	1304.37404382974	j	NaN	1	NaN	137
12	1	30	0	0.25	0	30	133	9	0.25	1540.21578282118	j	1	1	2	133
12	1	31	1	NaN	0	31	138	NaN	0	1146.932143718	j	NaN	1	NaN	138
12	1	32	0	0.5	0	32	134	9	0.5	943.615103140473	j	1	1	2	134
12	1	33	0	1	0	33	135	9	1	1117.36448202282	k	1	2	2	135
12	1	34	1	NaN	0	34	139	NaN	0.25	1209.18011525646	j	NaN	1	NaN	34
12	1	35	0	0.25	0	35	136	8	0.25	919.345808215439	k	1	2	2	136
12	1	36	1	NaN	0	36	140	NaN	1	2091.7948000133	j	NaN	1	NaN	140
12	1	37	0	1	0	37	137	8	1	1251.41964526847	j	1	1	1	137
12	1	38	1	NaN	0	38	141	NaN	0	1831.40522800386	k	NaN	2	NaN	141
12	1	39	0	0	0	39	138	8	0.5	1905.06502706558	k	0	2	1	39
12	1	40	1	NaN	0	40	142	NaN	0	1007.3189008981	k	NaN	2	NaN	142
12	1	41	0	0.25	0	41	34	7	0.25	868.901724927127	j	1	1	1	34
12	1	42	1	NaN	0	42	143	NaN	1	1329.70903487876	j	NaN	1	NaN	42
12	1	43	1	NaN	0	43	144	NaN	0.75	2065.92486985028	k	NaN	2	NaN	43
12	1	44	1	NaN	0	44	145	NaN	0.5	1447.65786780044	k	NaN	2	NaN	145
12	1	45	1	NaN	0	45	146	NaN	NaN	NaN	NaN	NaN	NaN	NaN	NaN
12	1	46	1	NaN	0	46	147	NaN	0.5	1098.54274289683	j	NaN	1	NaN	147
12	1	47	0	1	0	47	140	11	0.25	1992.95228905976	k	0	2	1	47
12	1	48	1	NaN	0	48	148	NaN	0.25	1393.73680111021	k	NaN	2	NaN	48
12	1	49	0	0	0	49	141	11	0	828.111335169524	j	0	1	2	49
12	1	50	0	0	0	50	142	10	0.75	858.054716140032	j	0	1	2	50
12	1	51	1	NaN	0	51	149	NaN	1	1542.15053003281	j	NaN	1	NaN	149
