Sub	Run	Trial	AllNew	PriorPay	PriorObjNaN	ObjA	ObjB	Delay	Pay	RT	Resp	ChooseOld	ChosenSide	PriorChosenSide	ChosenObj
2	1	1	1	NaN	0	361	481	NaN	0.5	1078.13166640699	k	NaN	2	NaN	361
2	1	2	1	NaN	0	362	482	NaN	1	1038.69289346039	k	NaN	2	NaN	482
2	1	3	1	NaN	0	363	483	NaN	0	861.590309068561	j	NaN	1	NaN	483
2	1	4	1	NaN	0	364	484	NaN	0	937.401782721281	j	NaN	1	NaN	484
2	1	5	1	NaN	0	365	485	NaN	0.75	974.886449053884	j	NaN	1	NaN	485
2	1	6	1	NaN	0	366	486	NaN	0.25	844.720305874944	k	NaN	2	NaN	486
2	1	7	1	NaN	0	367	487	NaN	1	843.174129724503	k	NaN	2	NaN	487
2	1	8	1	NaN	0	368	488	NaN	0.5	1233.61642472446	j	NaN	1	NaN	368
2	1	9	0	0.5	0	369	361	8	0.5	1776.85897052288	j	0	1	2	369
2	1	10	0	1	0	370	482	8	1	719.419991597533	j	1	1	2	482
2	1	11	0	0	0	371	483	8	0.75	1189.37610462308	k	0	2	1	371
2	1	12	0	0	0	372	484	8	0.5	1131.86070509255	k	0	2	1	372
2	1	13	1	NaN	0	373	489	NaN	0.25	1226.34593769908	k	NaN	2	NaN	373
2	1	14	1	NaN	0	374	490	NaN	0.5	1134.61093604565	j	NaN	1	NaN	374
2	1	15	1	NaN	0	375	491	NaN	0	1005.22712059319	j	NaN	1	NaN	491
2	1	16	0	0.75	0	376	485	11	0.75	1051.84409767389	k	1	2	1	485
2	1	17	1	NaN	0	377	492	NaN	0.75	1115.3922919184	k	NaN	2	NaN	492
2	1	18	0	1	0	378	487	11	1	1073.79525713623	j	1	1	2	487
2	1	19	1	NaN	0	379	493	NaN	0.5	1006.4445938915	j	NaN	1	NaN	493
2	1	20	1	NaN	0	380	494	NaN	0.25	1549.24092069268	k	NaN	2	NaN	494
2	1	21	0	0.25	0	381	486	15	0.5	1436.46441213787	k	0	2	2	381
2	1	22	1	NaN	0	382	495	NaN	0.25	857.386136427522	j	NaN	1	NaN	382
2	1	23	0	0.5	0	383	368	15	0.5	966.885292902589	j	0	1	1	383
2	1	24	1	NaN	0	384	496	NaN	0.75	823.044730350375	k	NaN	2	NaN	384
2	1	25	0	0.25	0	385	373	12	0.75	1114.84354734421	k	0	2	2	385
2	1	26	1	NaN	0	386	497	NaN	0.75	800.679266452789	k	NaN	2	NaN	386
2	1	27	0	0.5	0	387	374	13	0.5	974.867977201939	k	1	2	1	374
2	1	28	1	NaN	0	388	498	NaN	0.5	1374.06252883375	k	NaN	2	NaN	388
2	1	29	0	0	0	389	491	14	0	1012.9869543016	k	1	2	1	491
2	1	30	0	0.5	0	390	493	11	0	1123.80226142704	j	0	1	1	390
2	1	31	1	NaN	0	391	499	NaN	0.5	1281.91023878753	j	NaN	1	NaN	391
2	1	32	1	NaN	0	392	500	NaN	0.75	697.575457394123	k	NaN	2	NaN	500
2	1	33	0	0.75	0	393	492	16	0.75	1288.01210969687	j	0	1	2	393
2	1	34	0	0.25	0	394	494	14	0.5	1420.43542861938	j	0	1	2	394
2	1	35	1	NaN	0	395	501	NaN	0	1135.25773584843	j	NaN	1	NaN	501
2	1	36	0	0.25	0	396	382	14	0.75	1256.56666234136	k	0	2	1	396
2	1	37	1	NaN	0	397	502	NaN	0.25	1295.33089697361	k	NaN	2	NaN	502
2	1	38	0	0.75	0	398	384	14	0.75	949.366824701428	k	1	2	2	384
2	1	39	1	NaN	0	399	503	NaN	0	930.993404239416	k	NaN	2	NaN	399
2	1	40	1	NaN	0	400	504	NaN	1	1120.46977691352	j	NaN	1	NaN	504
2	1	41	0	0.5	0	401	391	10	1	1088.35100196302	k	0	2	1	401
2	1	42	0	0.5	0	402	388	14	1	1095.80689109862	k	0	2	2	402
2	1	43	0	0.75	0	403	386	17	0	1348.71464036405	j	0	1	2	403
2	1	44	1	NaN	0	404	505	NaN	0	1258.48698988557	j	NaN	1	NaN	505
2	1	45	0	0	0	405	501	10	0.25	939.912060275674	j	0	1	1	405
2	1	46	0	0.75	0	406	500	14	0.25	1139.52237740159	j	0	1	2	406
2	1	47	1	NaN	0	407	506	NaN	0	953.729828819633	k	NaN	2	NaN	407
2	1	48	1	NaN	0	408	507	NaN	0.75	1194.88700293005	j	NaN	1	NaN	408
2	1	49	1	NaN	0	409	508	NaN	1	1414.56783376634	j	NaN	1	NaN	508
2	1	50	0	0	0	410	399	11	0	1190.00056385994	j	0	1	2	410
2	1	51	0	0.25	0	411	502	14	0.25	1300.39642937481	k	0	2	2	411
2	1	52	0	1	0	412	504	12	1	1073.99540580809	j	1	1	1	504
2	1	53	0	0	0	413	505	9	0.5	1646.47077210248	k	0	2	1	413
2	1	54	1	NaN	0	414	509	NaN	0.75	1326.01976580918	k	NaN	2	NaN	509
2	1	55	0	0	0	415	407	8	1	1572.65572249889	k	0	2	2	415
2	1	56	1	NaN	0	416	510	NaN	0	1185.26304513216	k	NaN	2	NaN	416
2	1	57	1	NaN	0	417	511	NaN	0.75	814.862187951803	j	NaN	1	NaN	511
2	1	58	0	0.75	0	418	408	10	0.5	1082.87322148681	k	0	2	1	418
2	1	59	1	NaN	0	419	512	NaN	0.75	1553.5578802228	k	NaN	2	NaN	512
2	1	60	1	NaN	0	420	513	NaN	0	1367.79108643532	k	NaN	2	NaN	420
2	1	61	0	1	0	421	508	12	NaN	NaN	NaN	NaN	NaN	1	NaN
2	1	62	1	NaN	0	422	514	NaN	0	1139.72388952971	k	NaN	2	NaN	514
2	1	63	0	0.75	0	423	509	9	0.75	1387.59711198509	j	0	1	2	423
2	1	64	1	NaN	0	424	515	NaN	0	1688.67109529674	j	NaN	1	NaN	515
2	1	65	1	NaN	0	425	516	NaN	0.25	1057.33110755682	k	NaN	2	NaN	425
2	1	66	1	NaN	0	426	517	NaN	0	1141.60373434424	j	NaN	1	NaN	517
2	1	67	0	0	0	427	416	11	0.75	1068.70642118156	j	0	1	2	427
2	1	68	0	0.75	0	428	511	11	0.25	1138.61687481403	k	0	2	1	428
2	1	69	0	0.75	0	429	512	10	0.75	943.459294736385	k	1	2	2	512
2	1	70	1	NaN	0	430	518	NaN	1	1698.38523678482	j	NaN	1	NaN	430
2	1	71	0	0	0	431	420	11	0	1851.64555162191	j	0	1	2	431
2	1	72	1	NaN	0	432	519	NaN	0.5	1300.61042308807	k	NaN	2	NaN	519
2	1	73	1	NaN	0	433	520	NaN	1	1602.06243209541	j	NaN	1	NaN	520
2	1	74	0	0	0	434	514	12	0	1665.63364490867	j	1	1	2	514
2	1	75	0	0	0	435	515	11	0.5	874.90645609796	k	0	2	1	435
2	1	76	1	NaN	0	436	521	NaN	0	1174.6892593801	j	NaN	1	NaN	436
2	1	77	1	NaN	0	437	522	NaN	1	972.50652872026	k	NaN	2	NaN	522
2	1	78	1	NaN	0	438	523	NaN	0	1912.48826868832	j	NaN	1	NaN	438
2	1	79	0	0.25	0	439	425	14	0.25	953.722082078457	k	1	2	2	425
2	1	80	1	NaN	0	440	524	NaN	0.5	744.844734668732	j	NaN	1	NaN	524
2	1	81	0	0	0	441	517	15	0.25	942.280363291502	k	0	2	1	441
2	1	82	1	NaN	0	442	525	NaN	0.25	706.531645730138	j	NaN	1	NaN	525
2	1	83	0	1	0	443	430	13	1	706.811504438519	j	1	1	1	430
2	1	84	0	0.5	0	444	519	12	0.5	1233.23144204915	j	0	1	2	444
2	1	85	1	NaN	0	445	526	NaN	0.75	1822.50278629363	j	NaN	1	NaN	526
2	1	86	1	NaN	0	446	527	NaN	1	1175.32952316105	j	NaN	1	NaN	446
2	1	87	0	0	0	447	436	11	0	1331.10889792442	k	1	2	1	436
2	1	88	0	1	0	448	520	15	1	2201.71014778316	j	1	1	1	520
2	1	89	0	1	0	449	522	12	1	1162.10667975247	k	1	2	2	522
2	1	90	1	NaN	0	450	528	NaN	1	1264.32926207781	k	NaN	2	NaN	528
2	2	1	1	NaN	0	1	121	NaN	0.25	1068.84661689401	k	NaN	2	NaN	1
2	2	2	1	NaN	0	2	122	NaN	0.25	1104.91368919611	j	NaN	1	NaN	122
2	2	3	1	NaN	0	3	123	NaN	0.75	1079.54743504524	j	NaN	1	NaN	3
2	2	4	1	NaN	0	4	124	NaN	0	1333.32894183695	j	NaN	1	NaN	4
2	2	5	1	NaN	0	5	125	NaN	0	978.60168106854	k	NaN	2	NaN	5
2	2	6	1	NaN	0	6	126	NaN	0.5	992.667224258184	j	NaN	1	NaN	126
2	2	7	1	NaN	0	7	127	NaN	0.75	1071.72553800046	j	NaN	1	NaN	7
2	2	8	1	NaN	0	8	128	NaN	0	941.866405308247	j	NaN	1	NaN	128
2	2	9	0	0.25	0	9	1	8	0.25	1220.20521201193	k	0	2	2	9
2	2	10	1	NaN	0	10	129	NaN	0.25	835.614817216992	j	NaN	1	NaN	129
2	2	11	0	0.25	0	11	122	9	1	980.201531201601	k	0	2	1	11
2	2	12	0	0.75	0	12	3	9	0.75	962.219342589378	k	1	2	1	3
2	2	13	0	0	0	13	4	9	1	1127.75037251413	k	0	2	1	13
2	2	14	1	NaN	0	14	130	NaN	0.25	1253.15097905695	j	NaN	1	NaN	130
2	2	15	0	0	0	15	5	10	0	875.722505152225	k	1	2	2	5
2	2	16	0	0.5	0	16	126	10	0.5	1170.64925655723	k	1	2	1	126
2	2	17	0	0.75	0	17	7	10	0.75	1286.8357822299	j	1	1	1	7
2	2	18	1	NaN	0	18	131	NaN	0.25	829.589730128646	k	NaN	2	NaN	18
2	2	19	0	0	0	19	128	11	0	922.530183568597	j	0	1	1	19
2	2	20	1	NaN	0	20	132	NaN	0	1336.85185573995	k	NaN	2	NaN	20
2	2	21	0	0.25	0	21	129	11	0.25	1071.64256088436	j	1	1	1	129
2	2	22	1	NaN	0	22	133	NaN	0.75	1103.07383351028	j	NaN	1	NaN	22
2	2	23	1	NaN	0	23	134	NaN	0.5	813.610287383199	j	NaN	1	NaN	134
2	2	24	0	0.25	0	24	130	10	0.25	1474.7529681772	j	1	1	1	130
2	2	25	1	NaN	0	25	135	NaN	0.5	1056.80074542761	j	NaN	1	NaN	25
2	2	26	0	0.25	0	26	18	8	0.75	824.475254863501	j	0	1	2	26
2	2	27	0	0	0	27	20	7	0.75	1086.51481755078	k	0	2	2	27
2	2	28	1	NaN	0	28	136	NaN	0	1276.7603751272	j	NaN	1	NaN	136
2	2	29	0	0.75	0	29	22	7	0.75	1652.5354553014	j	1	1	1	22
2	2	30	1	NaN	0	30	137	NaN	0.5	1402.97801420093	j	NaN	1	NaN	137
2	2	31	0	0.5	0	31	134	8	0.5	1075.02963766456	k	1	2	1	134
2	2	32	1	NaN	0	32	138	NaN	0.75	1289.20168802142	k	NaN	2	NaN	138
2	2	33	0	0.5	0	33	25	8	0.5	1239.58853259683	k	1	2	1	25
2	2	34	1	NaN	0	34	139	NaN	0.5	766.375973820686	k	NaN	2	NaN	34
2	2	35	0	0	0	35	136	7	1	1092.84238889813	j	0	1	1	35
2	2	36	1	NaN	0	36	140	NaN	0.5	1114.457141608	k	NaN	2	NaN	140
2	2	37	0	0.5	0	37	137	7	0.5	1081.33906312287	k	1	2	1	137
2	2	38	1	NaN	0	38	141	NaN	0.25	1383.39405506849	j	NaN	1	NaN	141
2	2	39	0	0.75	0	39	138	7	1	967.340739443898	k	0	2	2	39
2	2	40	1	NaN	0	40	142	NaN	1	1310.14743633568	j	NaN	1	NaN	40
2	2	41	0	0.5	0	41	34	7	0.5	1619.63593773544	k	1	2	2	34
2	2	42	1	NaN	0	42	143	NaN	0.25	1313.62788192928	j	NaN	1	NaN	143
2	2	43	1	NaN	0	43	144	NaN	0.25	1038.66081871092	j	NaN	1	NaN	144
2	2	44	0	0.5	0	44	140	8	0.5	1078.6209050566	k	1	2	2	140
2	2	45	0	0.25	0	45	141	7	0.25	741.304820403457	k	1	2	1	141
2	2	46	1	NaN	0	46	145	NaN	0.75	1155.31372465193	k	NaN	2	NaN	145
2	2	47	1	NaN	0	47	146	NaN	0	1225.19179992378	k	NaN	2	NaN	146
2	2	48	0	1	0	48	40	8	1	704.644722864032	k	1	2	1	40
2	2	49	1	NaN	0	49	147	NaN	0.5	1415.69091007113	j	NaN	1	NaN	49
2	2	50	0	0.25	0	50	143	8	0.25	1646.53334021568	k	0	2	1	50
2	2	51	0	0.25	0	51	144	8	0.25	957.021394744515	k	0	2	1	51
2	2	52	1	NaN	0	52	148	NaN	0.25	1099.42740760744	j	NaN	1	NaN	148
2	2	53	1	NaN	0	53	149	NaN	1	1146.05303481221	k	NaN	2	NaN	53
2	2	54	1	NaN	0	54	150	NaN	1	1144.93450894952	j	NaN	1	NaN	150
2	2	55	1	NaN	0	55	151	NaN	1	1184.14273113012	k	NaN	2	NaN	151
2	2	56	1	NaN	0	56	152	NaN	0.75	1022.78424799442	k	NaN	2	NaN	56
2	2	57	0	0.75	0	57	145	11	0.75	1893.49328912795	k	1	2	2	145
2	2	58	1	NaN	0	58	153	NaN	0.75	1021.3441234082	j	NaN	1	NaN	58
2	2	59	0	0	0	59	146	12	0	1660.43774411082	j	0	1	2	59
2	2	60	0	0.5	0	60	49	11	0.5	1365.24002067745	k	1	2	1	49
2	2	61	1	NaN	0	61	154	NaN	0.75	1301.05410702527	k	NaN	2	NaN	154
2	2	62	1	NaN	0	62	155	NaN	0.25	887.674877420068	j	NaN	1	NaN	155
2	2	63	0	1	0	63	53	10	0.75	1062.41849623621	k	0	2	2	63
2	2	64	1	NaN	0	64	156	NaN	0	932.390995323658	j	NaN	1	NaN	156
2	2	65	0	0.25	0	65	148	13	0.25	905.742114409804	k	1	2	1	148
2	2	66	0	0.75	0	66	56	10	0.5	911.494880914688	k	0	2	2	66
2	2	67	1	NaN	0	67	157	NaN	0.5	918.511999770999	k	NaN	2	NaN	67
2	2	68	1	NaN	0	68	158	NaN	1	710.059992969036	j	NaN	1	NaN	158
2	2	69	0	1	0	69	150	15	1	844.048880040646	j	1	1	1	150
2	2	70	1	NaN	0	70	159	NaN	0	833.921309560537	k	NaN	2	NaN	159
2	2	71	0	0.75	0	71	154	10	0.75	1008.7833981961	k	0	2	2	71
2	2	72	0	1	0	72	151	17	1	744.447277858853	j	1	1	2	151
2	2	73	0	0.75	0	73	58	15	0.75	1103.32360677421	j	1	1	1	58
2	2	74	0	0.25	0	74	155	12	0.5	1204.8463486135	k	0	2	1	74
2	2	75	0	0	0	75	156	11	0	1563.95970843732	k	1	2	1	156
2	2	76	1	NaN	0	76	160	NaN	0	962.651154026389	k	NaN	2	NaN	160
2	2	77	0	0.5	0	77	67	10	0.5	752.055570483208	k	1	2	2	67
2	2	78	1	NaN	0	78	161	NaN	0.25	1104.08708080649	j	NaN	1	NaN	161
2	2	79	0	1	0	79	158	11	1	897.384475916624	j	1	1	1	158
2	2	80	1	NaN	0	80	162	NaN	0.75	1126.10397860408	j	NaN	1	NaN	162
2	2	81	0	0	0	81	159	11	0	1181.13977275789	j	0	1	2	81
2	2	82	1	NaN	0	82	163	NaN	1	1058.01673792303	k	NaN	2	NaN	163
2	2	83	1	NaN	0	83	164	NaN	1	1113.18309046328	j	NaN	1	NaN	83
2	2	84	1	NaN	0	84	165	NaN	0.75	1127.34409049153	k	NaN	2	NaN	84
2	2	85	0	0	0	85	160	9	0.5	949.056904762983	k	0	2	2	85
2	2	86	0	0.25	0	86	161	8	1	860.294852405787	j	0	1	1	86
2	2	87	1	NaN	0	87	166	NaN	0.75	1540.06128013134	k	NaN	2	NaN	166
2	2	88	1	NaN	0	88	167	NaN	1	971.505304798484	j	NaN	1	NaN	88
2	2	89	1	NaN	0	89	168	NaN	0.75	1112.94898204505	k	NaN	2	NaN	168
2	2	90	1	NaN	0	90	169	NaN	1	958.497395738959	k	NaN	2	NaN	169
3	1	1	1	NaN	0	1	121	NaN	0.25	986.565724015236	j	NaN	1	NaN	121
3	1	2	1	NaN	0	2	122	NaN	1	761.335289105773	k	NaN	2	NaN	122
3	1	3	1	NaN	0	3	123	NaN	0.5	955.663016065955	j	NaN	1	NaN	123
3	1	4	1	NaN	0	4	124	NaN	0	2153.35672162473	k	NaN	2	NaN	4
3	1	5	1	NaN	0	5	125	NaN	0.25	736.201580613852	j	NaN	1	NaN	5
3	1	6	1	NaN	0	6	126	NaN	1	887.907581403852	j	NaN	1	NaN	126
3	1	7	1	NaN	0	7	127	NaN	1	1038.06204162538	k	NaN	2	NaN	7
3	1	8	0	0.25	0	8	121	7	0.25	972.466144710779	k	1	2	1	121
3	1	9	1	NaN	0	9	128	NaN	0.5	1695.96109353006	k	NaN	2	NaN	9
3	1	10	1	NaN	0	10	129	NaN	0	1272.09306135774	j	NaN	1	NaN	129
3	1	11	0	1	0	11	122	9	1	651.770826429129	k	1	2	2	122
3	1	12	0	0.5	0	12	123	9	0.5	1376.22583843768	k	1	2	1	123
3	1	13	0	0	0	13	4	9	0	983.901891857386	k	1	2	2	4
3	1	14	0	0.25	0	14	5	9	0.25	1933.39020945132	j	1	1	1	5
3	1	15	1	NaN	0	15	130	NaN	0.25	1117.09725670516	k	NaN	2	NaN	130
3	1	16	0	1	0	16	126	10	1	1394.69161815941	j	1	1	1	126
3	1	17	0	1	0	17	7	10	1	1091.69932082295	k	1	2	2	7
3	1	18	1	NaN	0	18	131	NaN	0	1203.64828407764	k	NaN	2	NaN	131
3	1	19	0	0.5	0	19	9	10	0.5	2009.83043201268	j	1	1	2	9
3	1	20	1	NaN	0	20	132	NaN	0	1137.23197765648	k	NaN	2	NaN	132
3	1	21	0	0	0	21	129	11	1	838.434159755707	j	0	1	1	21
3	1	22	1	NaN	0	22	133	NaN	1	1045.47164589167	k	NaN	2	NaN	22
3	1	23	1	NaN	0	23	134	NaN	0.75	1899.13578145206	j	NaN	1	NaN	134
3	1	24	1	NaN	0	24	135	NaN	0.5	1507.03169591725	k	NaN	2	NaN	24
3	1	25	0	0.25	0	25	130	10	0.25	1984.71295833588	j	1	1	2	130
3	1	26	1	NaN	0	26	136	NaN	0.25	1552.48665809631	k	NaN	2	NaN	136
3	1	27	1	NaN	0	27	137	NaN	1	1615.90609326959	j	NaN	1	NaN	27
3	1	28	1	NaN	0	28	138	NaN	0.25	1686.10178120434	k	NaN	2	NaN	138
3	1	29	0	0	0	29	131	11	0	558.859948068857	j	1	1	2	131
3	1	30	0	0	0	30	132	10	0	595.345126464963	k	1	2	2	132
3	1	31	1	NaN	0	31	139	NaN	0.5	783.170353621244	j	NaN	1	NaN	31
3	1	32	0	1	0	32	22	10	1	1228.81418839097	k	1	2	2	22
3	1	33	0	0.75	0	33	134	10	0.75	1626.28936581314	k	1	2	1	134
3	1	34	0	0.5	0	34	24	10	0.75	928.45549620688	j	0	1	2	34
3	1	35	1	NaN	0	35	140	NaN	0	1605.72019591928	k	NaN	2	NaN	140
3	1	36	1	NaN	0	36	141	NaN	0.75	1246.38798832893	j	NaN	1	NaN	36
3	1	37	0	0.25	0	37	136	11	0.5	1150.00671334565	j	0	1	2	37
3	1	38	1	NaN	0	38	142	NaN	0.75	1200.74259676039	j	NaN	1	NaN	38
3	1	39	0	1	0	39	27	12	0.25	1254.34029847383	j	0	1	1	39
3	1	40	0	0.25	0	40	138	12	0.25	1591.17915481329	j	1	1	2	138
3	1	41	1	NaN	0	41	143	NaN	0.75	1078.10432091355	k	NaN	2	NaN	143
3	1	42	1	NaN	0	42	144	NaN	0.5	579.08164896071	j	NaN	1	NaN	144
3	1	43	0	0.5	0	43	31	12	0.5	1319.68958303332	k	1	2	1	31
3	1	44	0	0	0	44	140	9	0	454.393686726689	j	1	1	2	140
3	1	45	1	NaN	0	45	145	NaN	0	1207.4266616255	k	NaN	2	NaN	145
3	1	46	1	NaN	0	46	146	NaN	0	1206.12922869623	k	NaN	2	NaN	146
3	1	47	1	NaN	0	47	147	NaN	1	1454.58238385618	j	NaN	1	NaN	147
3	1	48	1	NaN	0	48	148	NaN	0	1269.52648162842	k	NaN	2	NaN	48
3	1	49	0	0.75	0	49	36	13	0.75	1306.73378333449	k	1	2	1	36
3	1	50	0	0.75	0	50	38	12	0.75	1666.3224324584	j	1	1	1	38
3	1	51	1	NaN	0	51	149	NaN	0.25	818.568628281355	k	NaN	2	NaN	149
3	1	52	1	NaN	0	52	150	NaN	0.5	1090.72125889361	k	NaN	2	NaN	52
3	1	53	0	0.75	0	53	143	12	1	1423.40634576976	k	0	2	2	53
3	1	54	1	NaN	0	54	151	NaN	0.5	1095.77581845224	k	NaN	2	NaN	54
3	1	55	0	0.5	0	55	144	13	1	677.442744374275	j	0	1	1	55
3	1	56	1	NaN	0	56	152	NaN	0.5	1116.09672755003	k	NaN	2	NaN	56
3	1	57	0	0	0	57	145	12	0.5	490.643724799156	j	0	1	2	57
3	1	58	0	0	0	58	48	10	0.25	1232.55330137908	k	0	2	2	58
3	1	59	0	1	0	59	147	12	1	726.058755069971	j	1	1	1	147
3	1	60	1	NaN	0	60	153	NaN	0.25	814.21659886837	k	NaN	2	NaN	153
3	1	61	1	NaN	0	61	154	NaN	1	943.976823240519	j	NaN	1	NaN	61
3	1	62	1	NaN	0	62	155	NaN	0.75	1382.55271688104	k	NaN	2	NaN	155
3	1	63	0	0.25	0	63	149	12	0.5	1549.23156835139	j	0	1	2	63
3	1	64	1	NaN	0	64	156	NaN	0	1356.36731237173	k	NaN	2	NaN	64
3	1	65	0	0	0	65	146	19	0	1059.32089686394	j	0	1	2	65
3	1	66	1	NaN	0	66	157	NaN	0.25	1288.44828903675	k	NaN	2	NaN	157
3	1	67	0	0.5	0	67	54	13	0.5	935.047876089811	j	1	1	2	54
3	1	68	0	0.5	0	68	56	12	0.75	902.624640613794	k	0	2	2	68
3	1	69	0	0.5	0	69	52	17	0.5	1345.98623402417	j	0	1	2	69
3	1	70	0	0.25	0	70	153	10	0.25	769.619671627879	k	1	2	2	153
3	1	71	1	NaN	0	71	158	NaN	0	992.744270712137	j	NaN	1	NaN	158
3	1	72	0	1	0	72	61	11	0.75	1790.93646071851	j	0	1	1	72
3	1	73	1	NaN	0	73	159	NaN	0.75	1047.03181236982	j	NaN	1	NaN	73
3	1	74	1	NaN	0	74	160	NaN	1	598.292158916593	k	NaN	2	NaN	74
3	1	75	0	0.75	0	75	155	13	0.5	885.613737627864	j	0	1	2	75
3	1	76	1	NaN	0	76	161	NaN	0	1258.96002165973	k	NaN	2	NaN	161
3	1	77	1	NaN	0	77	162	NaN	0.25	1466.29689820111	k	NaN	2	NaN	77
3	1	78	0	0.25	0	78	157	12	0.25	1384.5253046602	k	0	2	2	78
3	1	79	0	0	0	79	64	15	0.25	1198.30082543194	j	0	1	2	79
3	1	80	1	NaN	0	80	163	NaN	0.25	1094.59564648569	k	NaN	2	NaN	80
3	1	81	0	0	0	81	158	10	1	939.793780446053	j	0	1	1	81
3	1	82	1	NaN	0	82	164	NaN	0.75	688.374344259501	j	NaN	1	NaN	164
3	1	83	0	0.75	0	83	73	10	0.5	1176.59170925617	j	0	1	1	83
3	1	84	1	NaN	0	84	165	NaN	0.75	1309.8635263741	k	NaN	2	NaN	165
3	1	85	0	1	0	85	74	11	1	1476.86476446688	j	1	1	2	74
3	1	86	0	0	0	86	161	10	0	1066.14657305181	j	1	1	2	161
3	1	87	0	0.25	0	87	77	10	1	1544.64369080961	k	0	2	2	87
3	1	88	1	NaN	0	88	166	NaN	0.5	1335.55230125785	j	NaN	1	NaN	88
3	1	89	1	NaN	0	89	167	NaN	0.25	844.964670017362	k	NaN	2	NaN	167
3	1	90	1	NaN	0	90	168	NaN	0	784.562496468425	j	NaN	1	NaN	168
3	2	1	1	NaN	0	181	301	NaN	0.5	1365.31739495695	j	NaN	1	NaN	301
3	2	2	1	NaN	0	182	302	NaN	1	850.686855614185	k	NaN	2	NaN	302
3	2	3	1	NaN	0	183	303	NaN	0.5	632.19853490591	j	NaN	1	NaN	183
3	2	4	1	NaN	0	184	304	NaN	1	637.285245582461	k	NaN	2	NaN	304
3	2	5	1	NaN	0	185	305	NaN	0.25	742.642948403955	j	NaN	1	NaN	185
3	2	6	1	NaN	0	186	306	NaN	0.25	494.404945522547	k	NaN	2	NaN	186
3	2	7	1	NaN	0	187	307	NaN	0.5	732.283506542444	j	NaN	1	NaN	307
3	2	8	0	0.5	0	188	301	7	1	617.9503723979	k	0	2	1	188
3	2	9	1	NaN	0	189	308	NaN	0.5	1880.99115341902	j	NaN	1	NaN	189
3	2	10	0	1	0	190	302	8	0	488.735020160675	k	0	2	2	190
3	2	11	1	NaN	0	191	309	NaN	0.5	655.397186055779	j	NaN	1	NaN	309
3	2	12	0	0.5	0	192	183	9	0.5	662.453230470419	k	1	2	1	183
3	2	13	0	1	0	193	304	9	1	652.412174269557	j	1	1	2	304
3	2	14	1	NaN	0	194	310	NaN	0	634.306009858847	k	NaN	2	NaN	194
3	2	15	0	0.25	0	195	185	10	0.25	431.41546100378	j	1	1	1	185
3	2	16	1	NaN	0	196	311	NaN	0.75	725.333884358406	k	NaN	2	NaN	311
3	2	17	0	0.25	0	197	186	11	0.25	954.885421320796	j	0	1	2	197
3	2	18	0	0.5	0	198	307	11	0.25	991.657990962267	k	0	2	1	198
3	2	19	0	0.5	0	199	189	10	0.5	1222.18359075487	k	1	2	1	189
3	2	20	1	NaN	0	200	312	NaN	0	842.392314225435	j	NaN	1	NaN	200
3	2	21	0	0.5	0	201	309	10	0.75	1519.43780295551	j	0	1	1	201
3	2	22	1	NaN	0	202	313	NaN	0.25	599.850608035922	k	NaN	2	NaN	202
3	2	23	1	NaN	0	203	314	NaN	0.5	774.623528122902	j	NaN	1	NaN	203
3	2	24	1	NaN	0	204	315	NaN	0.75	653.491558507085	k	NaN	2	NaN	204
3	2	25	1	NaN	0	205	316	NaN	0.25	1060.42708642781	j	NaN	1	NaN	316
3	2	26	0	0.75	0	206	311	10	1	643.402352929115	k	0	2	2	206
3	2	27	0	0	0	207	194	13	0.75	650.117153301835	j	0	1	2	207
3	2	28	0	0	0	208	200	8	0.25	1185.66601537168	k	0	2	1	208
3	2	29	0	0.25	0	209	202	7	0	665.081875398755	j	0	1	2	209
3	2	30	1	NaN	0	210	317	NaN	0	686.67821586132	k	NaN	2	NaN	210
3	2	31	0	0.5	0	211	203	8	0.5	526.772074401379	j	0	1	1	211
3	2	32	1	NaN	0	212	318	NaN	1	469.508400186896	k	NaN	2	NaN	318
3	2	33	0	0.75	0	213	204	9	0.75	411.462863907218	j	0	1	2	213
3	2	34	1	NaN	0	214	319	NaN	0.5	731.267740949988	k	NaN	2	NaN	319
3	2	35	1	NaN	0	215	320	NaN	1	665.615018457174	j	NaN	1	NaN	320
3	2	36	0	0.25	0	216	316	11	0.25	591.687727719545	k	1	2	1	316
3	2	37	1	NaN	0	217	321	NaN	0.75	494.313018396497	j	NaN	1	NaN	321
3	2	38	0	0	0	218	210	8	0	462.227150797844	k	0	2	2	218
3	2	39	0	1	0	219	318	7	1	605.943014845252	j	1	1	2	318
3	2	40	1	NaN	0	220	322	NaN	1	570.933697745204	k	NaN	2	NaN	220
3	2	41	0	0.5	0	221	319	7	0.25	667.177552357316	j	0	1	2	221
3	2	42	1	NaN	0	222	323	NaN	0.5	554.458877071738	k	NaN	2	NaN	323
3	2	43	0	1	0	223	320	8	1	551.814524456859	j	1	1	1	320
3	2	44	1	NaN	0	224	324	NaN	0	1951.09186694026	k	NaN	2	NaN	224
3	2	45	0	0.75	0	225	321	8	0.25	2207.5950037688	k	0	2	1	225
3	2	46	1	NaN	0	226	325	NaN	0.5	1094.48600374162	j	NaN	1	NaN	325
3	2	47	0	1	0	227	220	7	1	1054.57635223866	j	0	1	2	227
3	2	48	1	NaN	0	228	326	NaN	0	1052.02246271074	j	NaN	1	NaN	228
3	2	49	1	NaN	0	229	327	NaN	0.5	644.92416754365	k	NaN	2	NaN	327
3	2	50	0	0.5	0	230	323	8	0.75	882.713774219155	j	0	1	2	230
3	2	51	0	0	0	231	224	7	0	618.027590215206	k	1	2	2	224
3	2	52	1	NaN	0	232	328	NaN	0.5	408.451996743679	j	NaN	1	NaN	232
3	2	53	0	0.5	0	233	325	7	1	390.072155743837	k	0	2	1	233
3	2	54	1	NaN	0	234	329	NaN	0	588.821582496166	j	NaN	1	NaN	329
3	2	55	1	NaN	0	235	330	NaN	0	525.041209533811	k	NaN	2	NaN	330
3	2	56	1	NaN	0	236	331	NaN	0.25	450.702797621489	j	NaN	1	NaN	331
3	2	57	1	NaN	0	237	332	NaN	0	761.6459839046	k	NaN	2	NaN	237
3	2	58	1	NaN	0	238	333	NaN	0.25	303.92393283546	j	NaN	1	NaN	333
3	2	59	0	0.5	0	239	327	10	0.5	486.969763413072	k	1	2	2	327
3	2	60	1	NaN	0	240	334	NaN	0	261.478114873171	j	NaN	1	NaN	240
3	2	61	0	0	0	241	228	13	0	1325.17451047897	k	0	2	1	241
3	2	62	0	0.5	0	242	232	10	0.5	497.201034799218	j	1	1	1	232
3	2	63	0	0	0	243	329	9	0	419.906493276358	j	1	1	1	329
3	2	64	0	0	0	244	330	9	0	275.825755670667	k	1	2	2	330
3	2	65	1	NaN	0	245	335	NaN	1	764.026165008545	j	NaN	1	NaN	335
3	2	66	0	0.25	0	246	331	10	0.25	314.04328532517	k	0	2	1	246
3	2	67	1	NaN	0	247	336	NaN	0.25	482.010880485177	j	NaN	1	NaN	247
3	2	68	0	0.25	0	248	333	10	1	352.804001420736	k	0	2	1	248
3	2	69	0	0	0	249	237	12	0	504.328018054366	j	1	1	2	237
3	2	70	1	NaN	0	250	337	NaN	1	270.273150876164	k	NaN	2	NaN	337
3	2	71	0	0	0	251	240	11	0	606.116112321615	j	1	1	1	240
3	2	72	1	NaN	0	252	338	NaN	0.5	531.592426821589	k	NaN	2	NaN	252
3	2	73	1	NaN	0	253	339	NaN	0.5	688.822962343693	j	NaN	1	NaN	339
3	2	74	1	NaN	0	254	340	NaN	0.25	400.505289435387	k	NaN	2	NaN	340
3	2	75	1	NaN	0	255	341	NaN	0.5	543.483212590218	j	NaN	1	NaN	341
3	2	76	1	NaN	0	256	342	NaN	1	349.68445636332	k	NaN	2	NaN	342
3	2	77	0	1	0	257	335	12	1	404.036650434136	j	1	1	1	335
3	2	78	0	0.25	0	258	247	11	0.25	507.5295381248	k	1	2	1	247
3	2	79	1	NaN	0	259	343	NaN	1	699.417421594262	j	NaN	1	NaN	259
3	2	80	0	1	0	260	337	10	1	518.41146685183	k	1	2	2	337
3	2	81	1	NaN	0	261	344	NaN	0.75	561.511591076851	j	NaN	1	NaN	261
3	2	82	1	NaN	0	262	345	NaN	0	751.4324542135	k	NaN	2	NaN	345
3	2	83	0	0.5	0	263	252	11	0.5	606.644777581096	j	1	1	2	252
3	2	84	0	0.5	0	264	339	11	0.75	757.21413642168	k	0	2	1	264
3	2	85	0	0.25	0	265	340	11	1	682.834859937429	j	0	1	2	265
3	2	86	0	1	0	266	342	10	0.5	785.038618370891	k	0	2	2	266
3	2	87	0	0.5	0	267	341	12	0.25	1992.00855381787	j	0	1	1	267
3	2	88	1	NaN	0	268	346	NaN	1	623.649217188358	k	NaN	2	NaN	346
3	2	89	0	1	0	269	259	10	0.75	1862.41350881755	j	0	1	1	269
3	2	90	1	NaN	0	270	347	NaN	NaN	NaN	NaN	NaN	NaN	NaN	NaN
4	1	1	1	NaN	0	1	121	NaN	0.75	1233.68374072015	k	NaN	2	NaN	1
4	1	2	1	NaN	0	2	122	NaN	0.75	2068.12979467213	j	NaN	1	NaN	122
4	1	3	1	NaN	0	3	123	NaN	0.25	2336.74488030374	k	NaN	2	NaN	3
4	1	4	1	NaN	0	4	124	NaN	NaN	NaN	NaN	NaN	NaN	NaN	NaN
4	1	5	1	NaN	0	5	125	NaN	1	1014.49663378298	k	NaN	2	NaN	125
4	1	6	1	NaN	0	6	126	NaN	0	1723.39648194611	j	NaN	1	NaN	6
4	1	7	1	NaN	0	7	127	NaN	0.25	1123.64579550922	k	NaN	2	NaN	7
4	1	8	0	0.75	0	8	1	7	1	1619.06555294991	k	0	2	2	8
4	1	9	1	NaN	0	9	128	NaN	0	1322.08658382297	j	NaN	1	NaN	128
4	1	10	1	NaN	0	10	129	NaN	1	1439.1571264714	j	NaN	1	NaN	10
4	1	11	0	0.75	0	11	122	9	0.5	1207.79827982187	k	0	2	1	11
4	1	12	0	0.25	0	12	3	9	0.25	1269.39532533288	k	0	2	2	12
4	1	13	0	NaN	1	13	4	9	0.75	1596.67157940567	k	1	2	NaN	4
4	1	14	0	1	0	14	125	9	1	1123.34260344505	k	1	2	2	125
4	1	15	1	NaN	0	15	130	NaN	0.25	1787.97543980181	j	NaN	1	NaN	15
4	1	16	0	0	0	16	6	10	0.5	1347.13586978614	k	0	2	1	16
4	1	17	0	0.25	0	17	7	10	0.25	2097.8901386261	k	1	2	2	7
4	1	18	1	NaN	0	18	131	NaN	0	1569.94192302227	k	NaN	2	NaN	18
4	1	19	0	0	0	19	128	10	0	1544.01786439121	j	0	1	1	19
4	1	20	1	NaN	0	20	132	NaN	1	1769.61013861001	j	NaN	1	NaN	20
4	1	21	0	1	0	21	10	11	1	1097.10370190442	j	1	1	1	10
4	1	22	1	NaN	0	22	133	NaN	0	1317.14469566941	j	NaN	1	NaN	22
4	1	23	1	NaN	0	23	134	NaN	0.75	1339.69520963728	k	NaN	2	NaN	134
4	1	24	1	NaN	0	24	135	NaN	0.75	1585.22363565862	k	NaN	2	NaN	135
4	1	25	0	0.25	0	25	15	10	0.25	1213.9130923897	k	0	2	1	25
4	1	26	1	NaN	0	26	136	NaN	0.5	1364.98892121017	j	NaN	1	NaN	136
4	1	27	1	NaN	0	27	137	NaN	0	1595.17791494727	k	NaN	2	NaN	27
4	1	28	1	NaN	0	28	138	NaN	1	1547.00527153909	k	NaN	2	NaN	138
4	1	29	0	0	0	29	18	11	0.5	1607.88416489959	j	0	1	2	29
4	1	30	0	1	0	30	20	10	0.5	1400.81577375531	j	0	1	1	30
4	1	31	1	NaN	0	31	139	NaN	0.75	1734.3490421772	k	NaN	2	NaN	31
4	1	32	0	0	0	32	22	10	0	1190.88200852275	j	0	1	1	32
4	1	33	0	0.75	0	33	134	10	0.75	1564.25059773028	j	1	1	2	134
4	1	34	0	0.75	0	34	135	10	0.75	2289.44960795343	k	0	2	2	34
4	1	35	1	NaN	0	35	140	NaN	0	1722.07673452795	j	NaN	1	NaN	35
4	1	36	1	NaN	0	36	141	NaN	0	1849.95428100228	k	NaN	2	NaN	141
4	1	37	0	0.5	0	37	136	11	1	1136.70495152473	j	0	1	1	37
4	1	38	1	NaN	0	38	142	NaN	1	1750.26880204678	k	NaN	2	NaN	142
4	1	39	0	0	0	39	27	12	0	1577.946215868	j	1	1	2	27
4	1	40	0	1	0	40	138	12	1	1094.62549164891	j	1	1	2	138
4	1	41	1	NaN	0	41	143	NaN	0.75	2276.30021236837	k	NaN	2	NaN	41
4	1	42	1	NaN	0	42	144	NaN	0.5	1283.73260423541	k	NaN	2	NaN	42
4	1	43	0	0.75	0	43	31	12	0.75	1328.57848517597	k	1	2	2	31
4	1	44	0	0	0	44	35	9	0.5	1382.26265460253	k	0	2	1	44
4	1	45	1	NaN	0	45	145	NaN	0.5	1724.72491301596	j	NaN	1	NaN	45
4	1	46	1	NaN	0	46	146	NaN	0.25	1373.03321994841	j	NaN	1	NaN	46
4	1	47	1	NaN	0	47	147	NaN	0.75	1189.727216959	j	NaN	1	NaN	147
4	1	48	1	NaN	0	48	148	NaN	0.5	1092.40241535008	j	NaN	1	NaN	48
4	1	49	0	0	0	49	141	13	0.5	2287.94411569834	k	0	2	2	49
4	1	50	0	1	0	50	142	12	1	1217.59239025414	k	1	2	2	142
4	1	51	1	NaN	0	51	149	NaN	0.25	2029.70450930297	j	NaN	1	NaN	149
4	1	52	1	NaN	0	52	150	NaN	0.5	1525.51729604602	j	NaN	1	NaN	52
4	1	53	0	0.75	0	53	41	12	1	1187.07830458879	k	0	2	2	53
4	1	54	1	NaN	0	54	151	NaN	0.75	2186.15420162678	k	NaN	2	NaN	151
4	1	55	0	0.5	0	55	42	13	0.5	2378.65778803825	k	0	2	2	55
4	1	56	1	NaN	0	56	152	NaN	0	1320.80463320017	j	NaN	1	NaN	152
4	1	57	0	0.5	0	57	45	12	0.5	1318.91192123294	j	1	1	1	45
4	1	58	0	0.5	0	58	48	10	0.5	1004.8283804208	k	1	2	1	48
4	1	59	0	0.75	0	59	147	12	NaN	NaN	NaN	NaN	NaN	1	NaN
4	1	60	1	NaN	0	60	153	NaN	0.5	1669.29448209703	j	NaN	1	NaN	153
4	1	61	1	NaN	0	61	154	NaN	0.75	1232.77107439935	j	NaN	1	NaN	61
4	1	62	1	NaN	0	62	155	NaN	0.25	1262.0250787586	j	NaN	1	NaN	62
4	1	63	0	0.25	0	63	149	12	0.25	1931.38851039112	j	0	1	1	63
4	1	64	1	NaN	0	64	156	NaN	0.75	1276.93917788565	k	NaN	2	NaN	156
4	1	65	0	0.25	0	65	46	19	0.25	1434.51469764113	k	1	2	1	46
4	1	66	1	NaN	0	66	157	NaN	1	1207.71962590516	k	NaN	2	NaN	157
4	1	67	0	0.75	0	67	151	13	1	1205.64076118171	k	0	2	2	67
4	1	68	0	0	0	68	152	12	0.75	1962.28351257741	k	0	2	1	68
4	1	69	0	0.5	0	69	52	17	0.5	1314.7439006716	k	1	2	1	52
4	1	70	0	0.5	0	70	153	10	1	1672.25550860167	j	0	1	1	70
4	1	71	1	NaN	0	71	158	NaN	1	2209.24079418182	j	NaN	1	NaN	158
4	1	72	0	0.75	0	72	61	11	0.75	1719.25702132285	j	1	1	1	61
4	1	73	1	NaN	0	73	159	NaN	0.75	1255.50070777535	k	NaN	2	NaN	159
4	1	74	1	NaN	0	74	160	NaN	0.75	1605.71073181927	k	NaN	2	NaN	160
4	1	75	0	0.25	0	75	62	13	0.25	1228.24474424124	k	1	2	1	62
4	1	76	1	NaN	0	76	161	NaN	0.5	1617.92437173426	k	NaN	2	NaN	161
4	1	77	1	NaN	0	77	162	NaN	0	1310.48177927732	k	NaN	2	NaN	162
4	1	78	0	1	0	78	157	12	1	1509.44492407143	j	1	1	2	157
4	1	79	0	0.75	0	79	156	15	0	1178.79419587553	k	0	2	2	79
4	1	80	1	NaN	0	80	163	NaN	0	1201.93608663976	k	NaN	2	NaN	163
4	1	81	0	1	0	81	158	10	1	1303.81481535733	k	1	2	1	158
4	1	82	1	NaN	0	82	164	NaN	1	1522.03696407378	j	NaN	1	NaN	164
4	1	83	0	0.75	0	83	159	10	0.25	1645.26548795402	j	0	1	2	83
4	1	84	1	NaN	0	84	165	NaN	1	1451.22354663908	j	NaN	1	NaN	165
4	1	85	0	0.75	0	85	160	11	0.5	1304.63894829154	j	0	1	2	85
4	1	86	0	0.5	0	86	161	10	0.5	1069.23029199243	k	1	2	2	161
4	1	87	0	0	0	87	162	10	0.5	1618.99925023317	j	0	1	2	87
4	1	88	1	NaN	0	88	166	NaN	0	1635.17863862216	j	NaN	1	NaN	166
4	1	89	1	NaN	0	89	167	NaN	0	928.626853972673	k	NaN	2	NaN	167
4	1	90	1	NaN	0	90	168	NaN	1	1901.74116380513	j	NaN	1	NaN	90
4	2	1	1	NaN	0	181	301	NaN	1	1355.99193349481	j	NaN	1	NaN	181
4	2	2	1	NaN	0	182	302	NaN	0	1506.95334002376	j	NaN	1	NaN	302
4	2	3	1	NaN	0	183	303	NaN	0.75	1463.76631967723	k	NaN	2	NaN	183
4	2	4	1	NaN	0	184	304	NaN	1	1358.2415971905	j	NaN	1	NaN	304
4	2	5	1	NaN	0	185	305	NaN	0.5	1611.76461540163	j	NaN	1	NaN	305
4	2	6	1	NaN	0	186	306	NaN	0.25	1026.88255906105	k	NaN	2	NaN	306
4	2	7	1	NaN	0	187	307	NaN	1	1688.35273943841	k	NaN	2	NaN	307
4	2	8	0	1	0	188	181	7	1	1199.38703812659	k	1	2	1	181
4	2	9	1	NaN	0	189	308	NaN	0.5	1821.67723961174	k	NaN	2	NaN	308
4	2	10	0	0	0	190	302	8	0	1222.78237529099	k	1	2	1	302
4	2	11	1	NaN	0	191	309	NaN	0.75	1388.95221054554	k	NaN	2	NaN	191
4	2	12	0	0.75	0	192	183	9	0.75	1995.59023231268	k	1	2	2	183
4	2	13	0	1	0	193	304	9	1	1595.11374868453	j	1	1	1	304
4	2	14	1	NaN	0	194	310	NaN	1	1384.21723432839	j	NaN	1	NaN	194
4	2	15	0	0.5	0	195	305	10	NaN	NaN	NaN	NaN	NaN	1	NaN
4	2	16	1	NaN	0	196	311	NaN	0.25	1218.68810988963	k	NaN	2	NaN	311
4	2	17	0	0.25	0	197	306	11	0.25	1494.47055906057	j	0	1	2	197
4	2	18	0	1	0	198	307	11	1	1491.61816202104	k	1	2	2	307
4	2	19	0	0.5	0	199	308	10	1	1377.95625068247	j	0	1	2	199
4	2	20	1	NaN	0	200	312	NaN	0	1637.55193166435	k	NaN	2	NaN	312
4	2	21	0	0.75	0	201	191	10	0.75	1174.62896555662	k	1	2	2	191
4	2	22	1	NaN	0	202	313	NaN	1	1260.94759255648	k	NaN	2	NaN	202
4	2	23	1	NaN	0	203	314	NaN	0	1524.40924011171	k	NaN	2	NaN	203
4	2	24	1	NaN	0	204	315	NaN	0.5	1179.79272454977	j	NaN	1	NaN	204
4	2	25	1	NaN	0	205	316	NaN	0	1513.07598687708	k	NaN	2	NaN	205
4	2	26	0	0.25	0	206	311	10	0.25	1975.13899765909	j	0	1	2	206
4	2	27	0	1	0	207	194	13	1	1158.38900581002	k	1	2	1	194
4	2	28	0	0	0	208	312	8	0	1477.90836170316	k	1	2	2	312
4	2	29	0	1	0	209	202	7	1	1924.10509847105	k	1	2	2	202
4	2	30	1	NaN	0	210	317	NaN	1	1492.73810721934	k	NaN	2	NaN	317
4	2	31	0	0	0	211	203	8	1	1702.51199044287	j	0	1	2	211
4	2	32	1	NaN	0	212	318	NaN	0	1556.17678724229	j	NaN	1	NaN	318
4	2	33	0	0.5	0	213	204	9	0.5	1113.1534948945	k	1	2	1	204
4	2	34	1	NaN	0	214	319	NaN	0.75	1504.51250560582	k	NaN	2	NaN	319
4	2	35	1	NaN	0	215	320	NaN	0	1805.56984432042	k	NaN	2	NaN	215
4	2	36	0	0	0	216	205	11	0.5	1460.35214886069	k	0	2	2	216
4	2	37	1	NaN	0	217	321	NaN	1	1683.97105298936	k	NaN	2	NaN	217
4	2	38	0	1	0	218	317	8	1	1195.55261731148	k	1	2	2	317
4	2	39	0	0	0	219	318	7	0.75	1258.98081809282	k	0	2	1	219
4	2	40	1	NaN	0	220	322	NaN	0.5	1418.16211864352	k	NaN	2	NaN	322
4	2	41	0	0.75	0	221	319	7	0.75	1543.81073825061	k	1	2	2	319
4	2	42	1	NaN	0	222	323	NaN	0.25	1983.92628319561	k	NaN	2	NaN	323
4	2	43	0	0	0	223	215	8	0.5	1152.27182023227	k	0	2	2	223
4	2	44	1	NaN	0	224	324	NaN	0	1612.53254674375	k	NaN	2	NaN	224
4	2	45	0	1	0	225	217	8	1	1060.26486679912	j	1	1	2	217
4	2	46	1	NaN	0	226	325	NaN	0.25	1418.44245232642	k	NaN	2	NaN	325
4	2	47	0	0.5	0	227	322	7	0.75	1512.3662892729	k	0	2	2	227
4	2	48	1	NaN	0	228	326	NaN	0.5	1965.58151952922	j	NaN	1	NaN	326
4	2	49	1	NaN	0	229	327	NaN	1	1326.34229585528	k	NaN	2	NaN	229
4	2	50	0	0.25	0	230	323	8	0.5	1579.45424690843	j	0	1	2	230
4	2	51	0	0	0	231	224	7	0.25	1066.63328595459	j	0	1	2	231
4	2	52	1	NaN	0	232	328	NaN	NaN	NaN	NaN	NaN	NaN	NaN	NaN
4	2	53	0	0.25	0	233	325	7	0.25	1702.07416452467	j	0	1	2	233
4	2	54	1	NaN	0	234	329	NaN	0.5	1341.09946526587	k	NaN	2	NaN	234
4	2	55	1	NaN	0	235	330	NaN	0.25	1379.2957291007	j	NaN	1	NaN	330
4	2	56	1	NaN	0	236	331	NaN	0.25	1785.65888851881	j	NaN	1	NaN	236
4	2	57	1	NaN	0	237	332	NaN	0.25	1217.31238439679	j	NaN	1	NaN	332
4	2	58	1	NaN	0	238	333	NaN	1	1016.57161675394	j	NaN	1	NaN	238
4	2	59	0	1	0	239	229	10	1	1071.72770053148	k	1	2	2	229
4	2	60	1	NaN	0	240	334	NaN	0.5	725.506013259292	j	NaN	1	NaN	334
4	2	61	0	0.5	0	241	326	13	0	1388.43046687543	j	0	1	1	241
4	2	62	0	NaN	1	242	232	10	0.25	984.091326594353	k	1	2	NaN	232
4	2	63	0	0.5	0	243	234	9	0.5	879.588413983583	k	1	2	2	234
4	2	64	0	0.25	0	244	330	9	0.75	1519.00145411491	k	0	2	1	244
4	2	65	1	NaN	0	245	335	NaN	0.25	1446.73173874617	j	NaN	1	NaN	245
4	2	66	0	0.25	0	246	236	10	1	1301.39478668571	j	0	1	1	246
4	2	67	1	NaN	0	247	336	NaN	1	1076.46146602929	k	NaN	2	NaN	247
4	2	68	0	1	0	248	238	10	0.5	1418.99478062987	k	0	2	1	248
4	2	69	0	0.25	0	249	332	12	0.25	1225.72783008218	j	1	1	1	332
4	2	70	1	NaN	0	250	337	NaN	0.25	1639.71210829914	j	NaN	1	NaN	250
4	2	71	0	0.5	0	251	334	11	0.5	776.885306462646	k	1	2	1	334
4	2	72	1	NaN	0	252	338	NaN	0.75	1284.87571515143	k	NaN	2	NaN	252
4	2	73	1	NaN	0	253	339	NaN	1	1522.95471355319	j	NaN	1	NaN	253
4	2	74	1	NaN	0	254	340	NaN	0.5	1305.91639503837	j	NaN	1	NaN	340
4	2	75	1	NaN	0	255	341	NaN	0.5	1383.31607729197	k	NaN	2	NaN	255
4	2	76	1	NaN	0	256	342	NaN	0	1390.18484205008	j	NaN	1	NaN	342
4	2	77	0	0.25	0	257	245	12	0.25	1447.15163856745	k	1	2	1	245
4	2	78	0	1	0	258	247	11	1	1149.30359460413	j	1	1	2	247
4	2	79	1	NaN	0	259	343	NaN	0.5	1533.12112204731	j	NaN	1	NaN	259
4	2	80	0	0.25	0	260	250	10	0	1250.53041987121	k	0	2	1	260
4	2	81	1	NaN	0	261	344	NaN	0.75	978.400766849518	j	NaN	1	NaN	344
4	2	82	1	NaN	0	262	345	NaN	0	1008.20354185998	k	NaN	2	NaN	262
4	2	83	0	0.75	0	263	252	11	0.75	1654.09489162266	j	0	1	2	263
4	2	84	0	1	0	264	253	11	1	1501.64715014398	k	1	2	1	253
4	2	85	0	0.5	0	265	340	11	0.25	1244.87291648984	j	0	1	1	265
4	2	86	0	0	0	266	342	10	0	1035.59461608529	j	1	1	1	342
4	2	87	0	0.5	0	267	255	12	0.5	1752.77570821345	k	0	2	2	267
4	2	88	1	NaN	0	268	346	NaN	0	1393.55665445328	j	NaN	1	NaN	268
4	2	89	0	0.5	0	269	259	10	0	2007.66750797629	k	0	2	1	269
4	2	90	1	NaN	0	270	347	NaN	0	1423.64752292633	j	NaN	1	NaN	347
5	1	1	1	NaN	0	1	121	NaN	0	1424.0323100239	j	NaN	1	NaN	121
5	1	2	1	NaN	0	2	122	NaN	0.5	1358.28604176641	k	NaN	2	NaN	122
5	1	3	1	NaN	0	3	123	NaN	0.5	2371.13003060222	k	NaN	2	NaN	123
5	1	4	1	NaN	0	4	124	NaN	0	1349.01894442737	k	NaN	2	NaN	4
5	1	5	1	NaN	0	5	125	NaN	0.25	1489.79684151709	j	NaN	1	NaN	5
5	1	6	1	NaN	0	6	126	NaN	0.5	1081.80524781346	k	NaN	2	NaN	126
5	1	7	1	NaN	0	7	127	NaN	NaN	NaN	NaN	NaN	NaN	NaN	NaN
5	1	8	0	0	0	8	121	7	1	1148.21346476674	k	0	2	1	8
5	1	9	0	0.5	0	9	122	7	0.5	972.599906846881	k	0	2	2	9
5	1	10	0	0.5	0	10	123	7	0.5	1136.82463206351	k	0	2	2	10
5	1	11	1	NaN	0	11	128	NaN	0	726.12333856523	k	NaN	2	NaN	11
5	1	12	0	0	0	12	4	8	NaN	NaN	NaN	NaN	NaN	2	NaN
5	1	13	0	0.25	0	13	5	8	0.25	1331.7239228636	j	1	1	1	5
5	1	14	1	NaN	0	14	129	NaN	0	1283.20731036365	k	NaN	2	NaN	129
5	1	15	0	0.5	0	15	126	9	0	1537.54012100399	j	0	1	2	15
5	1	16	1	NaN	0	16	130	NaN	1	1150.95154382288	j	NaN	1	NaN	16
5	1	17	0	NaN	1	17	7	10	0.5	1814.29768912494	j	0	1	NaN	17
5	1	18	1	NaN	0	18	131	NaN	0.5	1094.74319405854	j	NaN	1	NaN	18
5	1	19	0	0	0	19	11	8	0.5	797.523746266961	j	0	1	2	19
5	1	20	1	NaN	0	20	132	NaN	0.25	1299.61290769279	j	NaN	1	NaN	132
5	1	21	0	0	0	21	129	7	1	1514.82553593814	j	0	1	2	21
5	1	22	1	NaN	0	22	133	NaN	NaN	NaN	NaN	NaN	NaN	NaN	NaN
5	1	23	1	NaN	0	23	134	NaN	NaN	NaN	NaN	NaN	NaN	NaN	NaN
5	1	24	0	1	0	24	16	8	1	1246.27454765141	j	1	1	1	16
5	1	25	1	NaN	0	25	135	NaN	NaN	NaN	NaN	NaN	NaN	NaN	NaN
5	1	26	0	0.5	0	26	18	8	NaN	NaN	NaN	NaN	NaN	1	NaN
5	1	27	0	0.25	0	27	132	7	NaN	NaN	NaN	NaN	NaN	1	NaN
5	1	28	1	NaN	0	28	136	NaN	0.5	507.454514503479	j	NaN	1	NaN	136
5	1	29	1	NaN	0	29	137	NaN	NaN	NaN	NaN	NaN	NaN	NaN	NaN
5	1	30	1	NaN	0	30	138	NaN	1	406.988874077797	k	NaN	2	NaN	30
5	1	31	1	NaN	0	31	139	NaN	NaN	NaN	NaN	NaN	NaN	NaN	NaN
5	1	32	0	NaN	1	32	22	10	0.5	767.184445634484	j	1	1	NaN	22
5	1	33	1	NaN	0	33	140	NaN	0	1029.03304062784	j	NaN	1	NaN	33
5	1	34	1	NaN	0	34	141	NaN	1	1089.81591835618	j	NaN	1	NaN	34
5	1	35	0	NaN	1	35	23	12	1	1017.34231598675	j	1	1	NaN	23
5	1	36	0	NaN	1	36	25	11	0.25	1479.59639132023	j	1	1	NaN	25
5	1	37	1	NaN	0	37	142	NaN	0.75	1125.76527148485	j	NaN	1	NaN	142
5	1	38	1	NaN	0	38	143	NaN	0	1332.38547854125	j	NaN	1	NaN	143
5	1	39	0	0.5	0	39	136	11	0.25	1162.37600706518	j	0	1	1	39
5	1	40	1	NaN	0	40	144	NaN	0.75	1553.94627526402	k	NaN	2	NaN	144
5	1	41	0	NaN	1	41	29	12	0.75	1497.3626807332	j	1	1	NaN	29
5	1	42	0	1	0	42	30	12	0.25	1021.4011054486	k	0	2	2	42
5	1	43	1	NaN	0	43	145	NaN	0.5	1857.98192955554	j	NaN	1	NaN	43
5	1	44	1	NaN	0	44	146	NaN	0.75	1073.17127101123	k	NaN	2	NaN	44
5	1	45	0	NaN	1	45	31	14	0.75	1458.82932282984	j	1	1	NaN	31
5	1	46	0	1	0	46	34	12	1	753.711925819516	k	1	2	1	34
5	1	47	0	0.75	0	47	142	10	0.75	654.573123902082	k	1	2	1	142
5	1	48	1	NaN	0	48	147	NaN	0.75	1462.99293264747	j	NaN	1	NaN	147
5	1	49	0	0	0	49	143	11	0	1309.81045402586	j	0	1	1	49
5	1	50	1	NaN	0	50	148	NaN	0.5	794.791543856263	j	NaN	1	NaN	148
5	1	51	1	NaN	0	51	149	NaN	1	1447.84360006452	k	NaN	2	NaN	51
5	1	52	0	0.75	0	52	144	12	0	819.913469254971	k	0	2	2	52
5	1	53	0	0	0	53	33	20	0.25	914.59234803915	k	0	2	1	53
5	1	54	1	NaN	0	54	150	NaN	1	1824.87594522536	k	NaN	2	NaN	150
5	1	55	1	NaN	0	55	151	NaN	0.75	2175.89989863336	j	NaN	1	NaN	55
5	1	56	1	NaN	0	56	152	NaN	1	1095.01669928432	k	NaN	2	NaN	56
5	1	57	0	0.5	0	57	43	14	1	2124.81596693397	j	0	1	1	57
5	1	58	1	NaN	0	58	153	NaN	0.75	876.790199428797	k	NaN	2	NaN	153
5	1	59	0	0.75	0	59	44	15	0.75	778.065305203199	k	1	2	2	44
5	1	60	0	0.75	0	60	147	12	1	1304.78284135461	k	0	2	1	60
5	1	61	0	0.5	0	61	148	11	1	1167.8843088448	j	0	1	1	61
5	1	62	1	NaN	0	62	154	NaN	0.25	1100.47129541636	k	NaN	2	NaN	62
5	1	63	1	NaN	0	63	155	NaN	0.75	1234.08534191549	k	NaN	2	NaN	63
5	1	64	1	NaN	0	64	156	NaN	0	1414.63011875749	k	NaN	2	NaN	64
5	1	65	0	1	0	65	51	14	1	1083.70248414576	j	1	1	2	51
5	1	66	1	NaN	0	66	157	NaN	0	867.000952363014	j	NaN	1	NaN	66
5	1	67	0	1	0	67	150	13	0	1295.36178894341	k	0	2	2	67
5	1	68	0	0.75	0	68	153	10	0.75	1523.72387051582	j	1	1	2	153
5	1	69	0	0.75	0	69	55	14	0.75	1152.78325788677	k	1	2	1	55
5	1	70	0	1	0	70	56	14	1	758.185870945454	k	1	2	2	56
5	1	71	0	0.25	0	71	62	9	0.5	2082.63450860977	k	0	2	2	71
5	1	72	1	NaN	0	72	158	NaN	0.25	1374.63600002229	j	NaN	1	NaN	158
5	1	73	1	NaN	0	73	159	NaN	0.25	1484.95118506253	j	NaN	1	NaN	73
5	1	74	0	0.75	0	74	63	11	0.25	1379.72414679825	k	0	2	2	74
5	1	75	1	NaN	0	75	160	NaN	0.75	1698.06573539972	k	NaN	2	NaN	160
5	1	76	0	0	0	76	64	12	0	961.793998256326	j	0	1	2	76
5	1	77	1	NaN	0	77	161	NaN	0.75	861.670713871717	k	NaN	2	NaN	161
5	1	78	1	NaN	0	78	162	NaN	0.75	1674.76234771311	k	NaN	2	NaN	162
5	1	79	0	0	0	79	66	13	0	770.267916843295	j	0	1	1	79
5	1	80	0	0.25	0	80	158	8	0.25	1046.82022146881	j	0	1	1	80
5	1	81	0	0.25	0	81	73	8	0.5	955.466689541936	j	0	1	1	81
5	1	82	1	NaN	0	82	163	NaN	0.25	1762.83614896238	j	NaN	1	NaN	82
5	1	83	0	0.75	0	83	160	8	0.75	1017.40396395326	j	1	1	2	160
5	1	84	1	NaN	0	84	164	NaN	0	1670.23344524205	j	NaN	1	NaN	164
5	1	85	1	NaN	0	85	165	NaN	1	1174.3594724685	k	NaN	2	NaN	85
5	1	86	1	NaN	0	86	166	NaN	0.5	1732.87452943623	j	NaN	1	NaN	86
5	1	87	1	NaN	0	87	167	NaN	0	1020.47071233392	k	NaN	2	NaN	167
5	1	88	1	NaN	0	88	168	NaN	0.25	1752.98436358571	j	NaN	1	NaN	88
5	1	89	0	0.75	0	89	161	12	0.75	888.143984600902	k	1	2	2	161
5	1	90	0	0.75	0	90	162	12	0.75	2205.15128970146	j	1	1	2	162
5	2	1	1	NaN	0	181	301	NaN	1	1281.80223703384	j	NaN	1	NaN	301
5	2	2	1	NaN	0	182	302	NaN	0	1365.89787527919	j	NaN	1	NaN	182
5	2	3	1	NaN	0	183	303	NaN	0.75	1979.15817983449	k	NaN	2	NaN	183
5	2	4	1	NaN	0	184	304	NaN	0.5	1442.38681718707	j	NaN	1	NaN	184
5	2	5	1	NaN	0	185	305	NaN	0.25	1642.02337712049	k	NaN	2	NaN	185
5	2	6	1	NaN	0	186	306	NaN	0.5	1698.3679831028	j	NaN	1	NaN	186
5	2	7	1	NaN	0	187	307	NaN	1	1913.48265297711	j	NaN	1	NaN	187
5	2	8	1	NaN	0	188	308	NaN	1	936.99024990201	k	NaN	2	NaN	308
5	2	9	0	1	0	189	301	8	1	590.988155454397	j	1	1	1	301
5	2	10	1	NaN	0	190	309	NaN	0.5	1165.88005051017	j	NaN	1	NaN	309
5	2	11	0	0	0	191	182	9	0.25	1371.11768499017	j	0	1	1	191
5	2	12	1	NaN	0	192	310	NaN	0.25	1234.53648015857	k	NaN	2	NaN	192
5	2	13	0	0.75	0	193	183	10	0	1013.88937048614	j	0	1	2	193
5	2	14	1	NaN	0	194	311	NaN	0.75	2342.62379445136	k	NaN	2	NaN	311
5	2	15	0	0.5	0	195	184	11	0.5	749.637650325894	j	1	1	1	184
5	2	16	0	0.25	0	196	185	11	0.25	1341.44378453493	k	1	2	2	185
5	2	17	0	1	0	197	187	10	1	1052.63828113675	k	1	2	1	187
5	2	18	1	NaN	0	198	312	NaN	0	963.785588741302	k	NaN	2	NaN	312
5	2	19	0	1	0	199	308	11	1	866.708537563682	k	1	2	2	308
5	2	20	1	NaN	0	200	313	NaN	0.25	1071.85184210539	j	NaN	1	NaN	313
5	2	21	0	0.5	0	201	186	15	0.75	1489.14540559053	j	0	1	1	201
5	2	22	0	0.5	0	202	309	12	0.75	1062.40283697844	k	0	2	1	202
5	2	23	1	NaN	0	203	314	NaN	1	788.252452388406	j	NaN	1	NaN	314
5	2	24	0	0.25	0	204	192	12	0.25	803.827408701181	k	0	2	2	204
5	2	25	0	0.75	0	205	311	11	0.75	1161.3096576184	k	1	2	2	311
5	2	26	1	NaN	0	206	315	NaN	0.5	1254.37630712986	j	NaN	1	NaN	315
5	2	27	0	0	0	207	312	9	0.25	1216.63687378168	j	0	1	2	207
5	2	28	1	NaN	0	208	316	NaN	0	1003.88260558248	k	NaN	2	NaN	208
5	2	29	0	0.25	0	209	313	9	0	1123.34875762463	j	0	1	1	209
5	2	30	1	NaN	0	210	317	NaN	0.75	1234.95595529675	j	NaN	1	NaN	317
5	2	31	0	1	0	211	314	8	1	1160.55391170084	k	1	2	1	314
5	2	32	1	NaN	0	212	318	NaN	0.5	1436.59436516464	j	NaN	1	NaN	212
5	2	33	0	0.5	0	213	315	7	0.5	1073.48861731589	j	1	1	1	315
5	2	34	1	NaN	0	214	319	NaN	0.25	1464.56751041114	j	NaN	1	NaN	319
5	2	35	0	0	0	215	208	7	0.75	968.950036913157	j	0	1	2	215
5	2	36	1	NaN	0	216	320	NaN	0.75	1331.68701827526	k	NaN	2	NaN	320
5	2	37	0	0.75	0	217	317	7	1	1039.33256678283	k	0	2	1	217
5	2	38	1	NaN	0	218	321	NaN	0.5	702.127462252975	j	NaN	1	NaN	321
5	2	39	1	NaN	0	219	322	NaN	0.5	1018.53708177805	k	NaN	2	NaN	322
5	2	40	1	NaN	0	220	323	NaN	0.25	1199.94623400271	j	NaN	1	NaN	220
5	2	41	1	NaN	0	221	324	NaN	0.25	1109.99620333314	k	NaN	2	NaN	324
5	2	42	0	0.5	0	222	212	10	1	1227.28443145752	j	0	1	1	222
5	2	43	1	NaN	0	223	325	NaN	1	1828.38498800993	k	NaN	2	NaN	223
5	2	44	1	NaN	0	224	326	NaN	0.5	778.772631660104	k	NaN	2	NaN	224
5	2	45	0	0.25	0	225	319	11	0	1154.3778013438	j	0	1	1	225
5	2	46	0	0.75	0	226	320	10	0.5	920.870998874307	j	0	1	2	226
5	2	47	1	NaN	0	227	327	NaN	0	1311.3480489701	j	NaN	1	NaN	327
5	2	48	0	0.5	0	228	321	10	0.5	956.991370767355	k	1	2	1	321
5	2	49	0	0.5	0	229	322	10	0.5	1331.73232711852	j	1	1	2	322
5	2	50	0	0.25	0	230	220	10	0.75	970.835903659463	k	0	2	1	230
5	2	51	0	0.25	0	231	324	10	0.25	929.543007165194	j	1	1	2	324
5	2	52	1	NaN	0	232	328	NaN	0	961.233166977763	k	NaN	2	NaN	232
5	2	53	0	1	0	233	223	10	1	879.51597571373	k	1	2	2	223
5	2	54	1	NaN	0	234	329	NaN	0.5	1278.64151634276	j	NaN	1	NaN	329
5	2	55	1	NaN	0	235	330	NaN	0.75	1317.15150922537	j	NaN	1	NaN	235
5	2	56	0	0.5	0	236	224	12	0.25	739.822916686535	k	0	2	2	236
5	2	57	0	0	0	237	327	10	0.75	986.239530146122	j	0	1	1	237
5	2	58	1	NaN	0	238	331	NaN	0.75	1137.77062855661	j	NaN	1	NaN	238
5	2	59	0	0	0	239	232	7	0.75	783.355258405209	k	0	2	2	239
5	2	60	1	NaN	0	240	332	NaN	0.25	1101.55015438795	k	NaN	2	NaN	332
5	2	61	1	NaN	0	241	333	NaN	1	852.083707228303	k	NaN	2	NaN	241
5	2	62	1	NaN	0	242	334	NaN	0.75	1218.06511841714	k	NaN	2	NaN	242
5	2	63	1	NaN	0	243	335	NaN	0.25	1200.88299736381	j	NaN	1	NaN	243
5	2	64	0	0.5	0	244	329	10	0.5	1376.37532688677	k	1	2	1	329
5	2	65	1	NaN	0	245	336	NaN	0.5	1101.66516155005	k	NaN	2	NaN	336
5	2	66	1	NaN	0	246	337	NaN	0.25	1669.1885497421	j	NaN	1	NaN	246
5	2	67	0	0.75	0	247	235	12	0.75	771.127503365278	j	1	1	1	235
5	2	68	1	NaN	0	248	338	NaN	1	755.234368145466	k	NaN	2	NaN	338
5	2	69	0	0.75	0	249	238	11	0.5	1009.6069779247	j	0	1	1	249
5	2	70	1	NaN	0	250	339	NaN	1	944.345436990261	k	NaN	2	NaN	250
5	2	71	0	0.25	0	251	332	11	0.5	920.115860179067	k	0	2	2	251
5	2	72	0	0.75	0	252	242	10	0.25	1741.13186076283	k	0	2	2	252
5	2	73	0	0.25	0	253	243	10	0.25	869.312044233084	k	1	2	1	243
5	2	74	0	1	0	254	241	13	1	651.165779680014	j	1	1	2	241
5	2	75	1	NaN	0	255	340	NaN	1	922.524694353342	j	NaN	1	NaN	340
5	2	76	1	NaN	0	256	341	NaN	0.5	1192.92834214866	k	NaN	2	NaN	256
5	2	77	1	NaN	0	257	342	NaN	1	1023.59888702631	j	NaN	1	NaN	257
5	2	78	1	NaN	0	258	343	NaN	0	886.135367676616	k	NaN	2	NaN	258
5	2	79	0	0.25	0	259	246	13	0.5	917.588226497173	k	0	2	1	259
5	2	80	1	NaN	0	260	344	NaN	0.25	1130.71707077324	j	NaN	1	NaN	260
5	2	81	0	1	0	261	338	13	1	934.776231646538	k	1	2	2	338
5	2	82	1	NaN	0	262	345	NaN	1	1205.40313236415	k	NaN	2	NaN	262
5	2	83	0	0.5	0	263	336	18	0.5	1182.63919092715	k	1	2	2	336
5	2	84	1	NaN	0	264	346	NaN	0.75	843.091960996389	j	NaN	1	NaN	264
5	2	85	0	1	0	265	250	15	1	786.178907379508	k	1	2	2	250
5	2	86	1	NaN	0	266	347	NaN	0	640.057822689414	k	NaN	2	NaN	347
5	2	87	0	1	0	267	340	12	1	1174.92049746215	j	1	1	1	340
5	2	88	1	NaN	0	268	348	NaN	1	1196.54466770589	j	NaN	1	NaN	348
5	2	89	0	0.5	0	269	256	13	0.5	851.983515545726	j	1	1	2	256
5	2	90	0	1	0	270	257	13	1	793.367808684707	j	1	1	1	257
6	1	1	1	NaN	0	1	121	NaN	0.25	878.824623068795	k	NaN	2	NaN	1
6	1	2	1	NaN	0	2	122	NaN	0.25	1219.65596196242	k	NaN	2	NaN	122
6	1	3	1	NaN	0	3	123	NaN	0.75	1278.48160290159	k	NaN	2	NaN	3
6	1	4	1	NaN	0	4	124	NaN	0.75	1796.48716794327	k	NaN	2	NaN	124
6	1	5	1	NaN	0	5	125	NaN	0	1691.91315490752	k	NaN	2	NaN	5
6	1	6	1	NaN	0	6	126	NaN	0.5	1401.65096404962	k	NaN	2	NaN	126
6	1	7	1	NaN	0	7	127	NaN	0.75	1654.74551799707	j	NaN	1	NaN	7
6	1	8	0	0.25	0	8	1	7	0.25	1752.91153881699	j	1	1	2	1
6	1	9	0	0.25	0	9	122	7	0.25	1479.21274183318	j	1	1	2	122
6	1	10	0	0.75	0	10	3	7	0.75	1702.00636680238	k	1	2	2	3
6	1	11	1	NaN	0	11	128	NaN	1	1406.37683193199	j	NaN	1	NaN	128
6	1	12	0	0.75	0	12	124	8	0.75	963.41914194636	k	1	2	2	124
6	1	13	0	0	0	13	5	8	0	1348.03912905045	j	0	1	2	13
6	1	14	1	NaN	0	14	129	NaN	0	1216.87874617055	j	NaN	1	NaN	129
6	1	15	0	0.5	0	15	126	9	0.75	1137.05002213828	j	0	1	2	15
6	1	16	1	NaN	0	16	130	NaN	0.75	1136.1333199311	j	NaN	1	NaN	16
6	1	17	0	0.75	0	17	7	10	0.75	1582.25635602139	k	1	2	1	7
6	1	18	1	NaN	0	18	131	NaN	0	1013.83237005211	j	NaN	1	NaN	18
6	1	19	0	1	0	19	128	8	1	2179.24822401255	k	1	2	1	128
6	1	20	1	NaN	0	20	132	NaN	0.5	1323.16822116263	j	NaN	1	NaN	132
6	1	21	0	0	0	21	129	7	1	755.583803169429	k	0	2	1	21
6	1	22	1	NaN	0	22	133	NaN	0	1483.54855715297	k	NaN	2	NaN	22
6	1	23	1	NaN	0	23	134	NaN	0.5	1546.1324469652	k	NaN	2	NaN	23
6	1	24	0	0.75	0	24	16	8	0.75	1271.56952093355	k	1	2	1	16
6	1	25	1	NaN	0	25	135	NaN	0	1454.84032807872	j	NaN	1	NaN	135
6	1	26	0	0	0	26	18	8	0	1367.8555379156	k	1	2	1	18
6	1	27	0	0.5	0	27	132	7	0.5	1359.31985802017	j	1	1	1	132
6	1	28	1	NaN	0	28	136	NaN	0.5	1645.28933586553	j	NaN	1	NaN	136
6	1	29	1	NaN	0	29	137	NaN	NaN	NaN	NaN	NaN	NaN	NaN	NaN
6	1	30	1	NaN	0	30	138	NaN	0.25	1071.58205518499	j	NaN	1	NaN	30
6	1	31	1	NaN	0	31	139	NaN	1	1423.0669089593	k	NaN	2	NaN	139
6	1	32	0	0	0	32	22	10	0	1837.37264201045	k	1	2	2	22
6	1	33	1	NaN	0	33	140	NaN	1	813.675550976768	k	NaN	2	NaN	140
6	1	34	1	NaN	0	34	141	NaN	1	1508.35703313351	k	NaN	2	NaN	141
6	1	35	0	0.5	0	35	23	12	0.5	1643.90168595128	k	1	2	2	23
6	1	36	0	0	0	36	135	11	0.5	1147.06154004671	j	0	1	1	36
6	1	37	1	NaN	0	37	142	NaN	0	529.159002006054	k	NaN	2	NaN	37
6	1	38	1	NaN	0	38	143	NaN	1	1501.3560638763	k	NaN	2	NaN	143
6	1	39	0	0.5	0	39	136	11	0.75	1677.88998479955	j	0	1	1	39
6	1	40	1	NaN	0	40	144	NaN	1	1020.71514097042	j	NaN	1	NaN	40
6	1	41	0	NaN	1	41	29	12	0.25	1275.87936911732	k	0	2	NaN	41
6	1	42	0	0.25	0	42	30	12	1	1636.04451599531	j	0	1	1	42
6	1	43	1	NaN	0	43	145	NaN	0.5	1210.00078413635	j	NaN	1	NaN	145
6	1	44	1	NaN	0	44	146	NaN	0.25	798.811921849847	j	NaN	1	NaN	146
6	1	45	0	1	0	45	139	14	1	1454.98950895853	j	1	1	2	139
6	1	46	0	1	0	46	141	12	NaN	NaN	NaN	NaN	NaN	2	NaN
6	1	47	0	0	0	47	37	10	0.5	760.884264018387	j	0	1	2	47
6	1	48	1	NaN	0	48	147	NaN	0.25	1178.08802099898	k	NaN	2	NaN	48
6	1	49	0	1	0	49	143	11	1	1105.12118786573	j	1	1	2	143
6	1	50	1	NaN	0	50	148	NaN	0	1632.14587117545	k	NaN	2	NaN	148
6	1	51	1	NaN	0	51	149	NaN	0.25	1890.80859185196	k	NaN	2	NaN	149
6	1	52	0	1	0	52	40	12	1	774.618551833555	j	1	1	1	40
6	1	53	0	1	0	53	140	20	0.25	1998.1490180362	k	0	2	2	53
6	1	54	1	NaN	0	54	150	NaN	0.75	2029.41556600854	k	NaN	2	NaN	150
6	1	55	1	NaN	0	55	151	NaN	0.75	1447.31155410409	k	NaN	2	NaN	55
6	1	56	1	NaN	0	56	152	NaN	0	1479.0058080107	k	NaN	2	NaN	56
6	1	57	0	0.5	0	57	145	14	0.5	957.758549135178	k	1	2	1	145
6	1	58	1	NaN	0	58	153	NaN	0.75	1331.09261514619	k	NaN	2	NaN	153
6	1	59	0	0.25	0	59	146	15	0.25	2289.23210687935	k	1	2	1	146
6	1	60	0	0.25	0	60	48	12	0.75	1585.48967191018	j	0	1	2	60
6	1	61	0	0	0	61	148	11	1	729.643108090386	k	0	2	2	61
6	1	62	1	NaN	0	62	154	NaN	0.25	1735.22792500444	k	NaN	2	NaN	154
6	1	63	1	NaN	0	63	155	NaN	0.5	1180.80229102634	k	NaN	2	NaN	155
6	1	64	1	NaN	0	64	156	NaN	0.25	1733.57130307704	j	NaN	1	NaN	64
6	1	65	0	0.25	0	65	149	14	0.25	1508.15441901796	k	1	2	2	149
6	1	66	1	NaN	0	66	157	NaN	0.75	1194.97773610055	j	NaN	1	NaN	66
6	1	67	0	0.75	0	67	150	13	0.75	827.238511061296	k	1	2	2	150
6	1	68	0	0.75	0	68	153	10	0.75	1233.59638778493	k	1	2	2	153
6	1	69	0	0.75	0	69	55	14	0.75	1153.45147787593	k	1	2	2	55
6	1	70	0	0	0	70	56	14	0.25	1167.42589999922	j	0	1	2	70
6	1	71	0	0.25	0	71	154	9	0.25	1092.94849215075	k	1	2	2	154
6	1	72	1	NaN	0	72	158	NaN	1	1610.41724588722	k	NaN	2	NaN	158
6	1	73	1	NaN	0	73	159	NaN	1	1352.74470201693	k	NaN	2	NaN	73
6	1	74	0	0.5	0	74	155	11	0.75	927.700183819979	j	0	1	2	74
6	1	75	1	NaN	0	75	160	NaN	0.25	1766.41113799997	k	NaN	2	NaN	160
6	1	76	0	0.25	0	76	64	12	0.25	1670.0790328905	k	1	2	1	64
6	1	77	1	NaN	0	77	161	NaN	0.5	1963.47098820843	k	NaN	2	NaN	77
6	1	78	1	NaN	0	78	162	NaN	1	1034.49926408939	j	NaN	1	NaN	162
6	1	79	0	0.75	0	79	66	13	0.75	1115.07874401286	j	1	1	1	66
6	1	80	0	1	0	80	158	8	1	1545.91674287803	j	1	1	2	158
6	1	81	0	1	0	81	73	8	0.75	1887.39427807741	k	0	2	2	81
6	1	82	1	NaN	0	82	163	NaN	0.25	605.604799930006	k	NaN	2	NaN	82
6	1	83	0	0.25	0	83	160	8	0.25	1333.88010109775	j	1	1	2	160
6	1	84	1	NaN	0	84	164	NaN	0.75	1538.88448211364	j	NaN	1	NaN	84
6	1	85	1	NaN	0	85	165	NaN	0.5	2202.34548998997	j	NaN	1	NaN	165
6	1	86	1	NaN	0	86	166	NaN	0	1121.80647207424	k	NaN	2	NaN	86
6	1	87	1	NaN	0	87	167	NaN	0.25	1328.56668392196	j	NaN	1	NaN	87
6	1	88	1	NaN	0	88	168	NaN	0	894.327214919031	k	NaN	2	NaN	168
6	1	89	0	0.5	0	89	77	12	0.5	950.094840954989	k	1	2	2	77
6	1	90	0	1	0	90	162	12	1	788.72605599463	j	1	1	1	162
6	2	1	1	NaN	0	181	301	NaN	1	752.919520018622	j	NaN	1	NaN	181
6	2	2	1	NaN	0	182	302	NaN	0	1374.70775400288	k	NaN	2	NaN	302
6	2	3	1	NaN	0	183	303	NaN	0.75	1222.5524270907	j	NaN	1	NaN	303
6	2	4	1	NaN	0	184	304	NaN	0	1197.05342291854	k	NaN	2	NaN	304
6	2	5	1	NaN	0	185	305	NaN	0.75	829.114113003016	k	NaN	2	NaN	185
6	2	6	1	NaN	0	186	306	NaN	0.5	1274.69297382049	k	NaN	2	NaN	186
6	2	7	1	NaN	0	187	307	NaN	0.25	1168.07508794591	j	NaN	1	NaN	187
6	2	8	1	NaN	0	188	308	NaN	1	974.295526044443	j	NaN	1	NaN	188
6	2	9	0	1	0	189	181	8	0.5	893.439339008182	j	0	1	1	189
6	2	10	1	NaN	0	190	309	NaN	0	1469.71228299662	j	NaN	1	NaN	190
6	2	11	0	0	0	191	302	9	1	852.967857848853	k	0	2	2	191
6	2	12	1	NaN	0	192	310	NaN	0.25	1051.9376641605	j	NaN	1	NaN	310
6	2	13	0	0.75	0	193	303	10	0.75	816.965786973014	k	1	2	1	303
6	2	14	1	NaN	0	194	311	NaN	1	1200.04377514124	j	NaN	1	NaN	311
6	2	15	0	0	0	195	304	11	0	1774.49295902625	k	0	2	2	195
6	2	16	0	0.75	0	196	185	11	0.75	741.625539958477	j	1	1	2	185
6	2	17	0	0.25	0	197	187	10	1	1420.98842095584	k	0	2	1	197
6	2	18	1	NaN	0	198	312	NaN	0.5	980.721134925261	k	NaN	2	NaN	312
6	2	19	0	1	0	199	188	11	1	1052.02092602849	j	1	1	1	188
6	2	20	1	NaN	0	200	313	NaN	1	972.107978072017	j	NaN	1	NaN	200
6	2	21	0	0.5	0	201	186	15	0.5	819.490427151322	j	1	1	2	186
6	2	22	0	0	0	202	190	12	0	819.222606951371	k	0	2	1	202
6	2	23	1	NaN	0	203	314	NaN	0.5	1568.19692905992	j	NaN	1	NaN	203
6	2	24	0	0.25	0	204	310	12	0.25	1393.19853507914	k	1	2	1	310
6	2	25	0	1	0	205	311	11	1	751.026386162266	j	1	1	1	311
6	2	26	1	NaN	0	206	315	NaN	0.25	1743.3184790425	k	NaN	2	NaN	206
6	2	27	0	0.5	0	207	312	9	0.5	1255.26167312637	k	0	2	2	207
6	2	28	1	NaN	0	208	316	NaN	0.5	1517.97749497928	j	NaN	1	NaN	316
6	2	29	0	1	0	209	200	9	1	1333.90835905448	k	1	2	1	200
6	2	30	1	NaN	0	210	317	NaN	1	733.296260936186	j	NaN	1	NaN	210
6	2	31	0	0.5	0	211	203	8	0.5	1013.68867186829	k	1	2	1	203
6	2	32	1	NaN	0	212	318	NaN	0	947.487839031965	j	NaN	1	NaN	212
6	2	33	0	0.25	0	213	206	7	0.25	1235.08367687464	k	1	2	2	206
6	2	34	1	NaN	0	214	319	NaN	0.25	1249.30635979399	k	NaN	2	NaN	319
6	2	35	0	0.5	0	215	316	7	0.25	1024.79522093199	k	0	2	1	215
6	2	36	1	NaN	0	216	320	NaN	0.5	1736.19988118298	j	NaN	1	NaN	216
6	2	37	0	1	0	217	210	7	1	790.612614015117	k	1	2	1	210
6	2	38	1	NaN	0	218	321	NaN	0	989.977156044915	j	NaN	1	NaN	218
6	2	39	1	NaN	0	219	322	NaN	0.75	983.050724957138	j	NaN	1	NaN	219
6	2	40	1	NaN	0	220	323	NaN	0	796.577813103795	j	NaN	1	NaN	323
6	2	41	1	NaN	0	221	324	NaN	0.25	1550.23841490038	j	NaN	1	NaN	324
6	2	42	0	0	0	222	212	10	0	932.612488046288	k	1	2	1	212
6	2	43	1	NaN	0	223	325	NaN	1	1052.07614903338	k	NaN	2	NaN	223
6	2	44	1	NaN	0	224	326	NaN	0.25	1572.50107289292	j	NaN	1	NaN	326
6	2	45	0	0.25	0	225	319	11	0	1371.33992789313	j	0	1	2	225
6	2	46	0	0.5	0	226	216	10	0.5	1451.60012505949	k	0	2	1	226
6	2	47	1	NaN	0	227	327	NaN	0.75	1705.31451818533	k	NaN	2	NaN	227
6	2	48	0	0	0	228	218	10	1	1696.50589185767	j	0	1	1	228
6	2	49	0	0.75	0	229	219	10	0.75	1598.64554484375	k	1	2	1	219
6	2	50	0	0	0	230	323	10	1	1071.66457897983	k	0	2	1	230
6	2	51	0	0.25	0	231	324	10	0.25	1535.15117405914	k	0	2	1	231
6	2	52	1	NaN	0	232	328	NaN	0	1471.45854309201	j	NaN	1	NaN	328
6	2	53	0	1	0	233	223	10	1	1702.13199802674	j	1	1	2	223
6	2	54	1	NaN	0	234	329	NaN	0.5	1357.33628901653	j	NaN	1	NaN	329
6	2	55	1	NaN	0	235	330	NaN	1	1500.45805494301	k	NaN	2	NaN	330
6	2	56	0	0.25	0	236	326	12	1	1412.57375804707	j	0	1	1	236
6	2	57	0	0.75	0	237	227	10	0.75	1590.63457301818	j	1	1	2	227
6	2	58	1	NaN	0	238	331	NaN	0	1222.93244395405	j	NaN	1	NaN	238
6	2	59	0	0	0	239	328	7	0.25	1423.50834514946	j	0	1	1	239
6	2	60	1	NaN	0	240	332	NaN	0.25	1696.08970102854	j	NaN	1	NaN	240
6	2	61	1	NaN	0	241	333	NaN	0.5	1326.4983589761	k	NaN	2	NaN	241
6	2	62	1	NaN	0	242	334	NaN	0.75	1330.82233811729	k	NaN	2	NaN	242
6	2	63	1	NaN	0	243	335	NaN	0.75	1178.48294507712	k	NaN	2	NaN	243
6	2	64	0	0.5	0	244	329	10	0.5	1283.37861713953	j	1	1	1	329
6	2	65	1	NaN	0	245	336	NaN	1	882.302548037842	j	NaN	1	NaN	336
6	2	66	1	NaN	0	246	337	NaN	0.75	1691.96647894569	k	NaN	2	NaN	337
6	2	67	0	1	0	247	330	12	0.75	1106.51254490949	j	0	1	2	247
6	2	68	1	NaN	0	248	338	NaN	0.25	937.851334922016	j	NaN	1	NaN	338
6	2	69	0	0	0	249	238	11	0.5	1919.77775399573	j	0	1	1	249
6	2	70	1	NaN	0	250	339	NaN	0.5	1214.36722599901	k	NaN	2	NaN	250
6	2	71	0	0.25	0	251	240	11	0.75	1134.68219200149	j	0	1	1	251
6	2	72	0	0.75	0	252	242	10	0	1278.89658696949	k	0	2	2	252
6	2	73	0	0.75	0	253	243	10	0.75	1310.26324699633	k	1	2	2	243
6	2	74	0	0.5	0	254	241	13	0.5	1445.94459584914	k	1	2	2	241
6	2	75	1	NaN	0	255	340	NaN	NaN	NaN	NaN	NaN	NaN	NaN	NaN
6	2	76	1	NaN	0	256	341	NaN	0.5	1391.72884705476	j	NaN	1	NaN	256
6	2	77	1	NaN	0	257	342	NaN	0.5	879.473878070712	k	NaN	2	NaN	257
6	2	78	1	NaN	0	258	343	NaN	0	1502.87301791832	k	NaN	2	NaN	258
6	2	79	0	0.75	0	259	337	13	0.75	1408.0245080404	j	1	1	2	337
6	2	80	1	NaN	0	260	344	NaN	0.75	773.278245003894	k	NaN	2	NaN	260
6	2	81	0	0.25	0	261	338	13	0.25	1142.26913498715	j	1	1	1	338
6	2	82	1	NaN	0	262	345	NaN	0.75	1180.78759917989	j	NaN	1	NaN	345
6	2	83	0	1	0	263	336	18	1	1172.45850688778	j	1	1	1	336
6	2	84	1	NaN	0	264	346	NaN	0.25	1663.91311306506	k	NaN	2	NaN	346
6	2	85	0	0.5	0	265	250	15	0.5	1359.06757297926	k	0	2	2	265
6	2	86	1	NaN	0	266	347	NaN	0.25	1166.44246201031	k	NaN	2	NaN	347
6	2	87	0	NaN	1	267	255	12	0.75	1765.73091605678	k	1	2	NaN	255
6	2	88	1	NaN	0	268	348	NaN	0.75	1590.55359615013	k	NaN	2	NaN	348
6	2	89	0	0.5	0	269	256	13	1	837.209219811484	k	0	2	1	269
6	2	90	0	0.5	0	270	257	13	0.5	1036.70089878142	j	1	1	2	257
7	1	1	1	NaN	0	361	481	NaN	NaN	NaN	NaN	NaN	NaN	NaN	NaN
7	1	2	1	NaN	0	362	482	NaN	0.75	1148.57104700059	j	NaN	1	NaN	362
7	1	3	1	NaN	0	363	483	NaN	0	980.796537129208	k	NaN	2	NaN	363
7	1	4	1	NaN	0	364	484	NaN	0.5	1180.66929001361	k	NaN	2	NaN	364
7	1	5	1	NaN	0	365	485	NaN	0.75	1147.1460708417	j	NaN	1	NaN	485
7	1	6	1	NaN	0	366	486	NaN	0.75	857.259035110474	k	NaN	2	NaN	366
7	1	7	1	NaN	0	367	487	NaN	0.25	1070.58377889916	k	NaN	2	NaN	367
7	1	8	0	NaN	1	368	361	7	1	1104.37478497624	k	1	2	NaN	361
7	1	9	1	NaN	0	369	488	NaN	0.75	1167.88269905373	j	NaN	1	NaN	488
7	1	10	1	NaN	0	370	489	NaN	0	1029.91608018056	k	NaN	2	NaN	489
7	1	11	0	0.75	0	371	362	9	0.75	932.152868947014	k	1	2	1	362
7	1	12	0	0	0	372	363	9	0	1096.56992391683	k	0	2	2	372
7	1	13	1	NaN	0	373	490	NaN	0.5	879.116378026083	k	NaN	2	NaN	490
7	1	14	0	0.5	0	374	364	10	0.5	1132.5070951134	j	1	1	2	364
7	1	15	1	NaN	0	375	491	NaN	0.5	781.298425979912	k	NaN	2	NaN	375
7	1	16	0	0.75	0	376	485	11	0.75	1234.90811302327	j	1	1	1	485
7	1	17	0	0.25	0	377	367	10	0.5	1049.544113921	k	0	2	2	377
7	1	18	1	NaN	0	378	492	NaN	0	776.611714856699	k	NaN	2	NaN	492
7	1	19	0	0.75	0	379	366	13	0.75	976.352362893522	j	1	1	2	366
7	1	20	0	0	0	380	489	10	0.5	982.237096875906	j	0	1	2	380
7	1	21	0	0.75	0	381	488	12	0.75	1438.14032105729	j	0	1	1	381
7	1	22	1	NaN	0	382	493	NaN	0.75	1275.91783902608	j	NaN	1	NaN	493
7	1	23	0	0.5	0	383	490	10	0.5	1601.84485488571	j	1	1	2	490
7	1	24	1	NaN	0	384	494	NaN	0.25	1185.96459086984	k	NaN	2	NaN	384
7	1	25	1	NaN	0	385	495	NaN	0.5	1297.56103409454	j	NaN	1	NaN	385
7	1	26	1	NaN	0	386	496	NaN	0.75	1216.63787402213	j	NaN	1	NaN	496
7	1	27	1	NaN	0	387	497	NaN	0	1358.22553699836	k	NaN	2	NaN	497
7	1	28	1	NaN	0	388	498	NaN	0.25	964.910425012931	k	NaN	2	NaN	498
7	1	29	0	0.5	0	389	375	14	0	971.427683951333	j	0	1	2	389
7	1	30	0	0	0	390	492	12	0	1155.50606697798	j	0	1	2	390
7	1	31	1	NaN	0	391	499	NaN	1	1362.61847801507	j	NaN	1	NaN	391
7	1	32	1	NaN	0	392	500	NaN	0.25	1176.4659229666	k	NaN	2	NaN	500
7	1	33	0	0.75	0	393	493	11	0.75	1470.69516801275	k	1	2	1	493
7	1	34	1	NaN	0	394	501	NaN	1	1118.81203600205	j	NaN	1	NaN	501
7	1	35	0	0.25	0	395	384	11	0.75	1428.9660549257	j	0	1	2	395
7	1	36	0	0.5	0	396	385	11	0.5	1789.48407294229	k	1	2	1	385
7	1	37	0	0.75	0	397	496	11	0.75	1211.51088294573	k	1	2	1	496
7	1	38	0	0	0	398	497	11	0	1546.10942793079	j	0	1	2	398
7	1	39	0	0.25	0	399	498	11	1	1408.10730983503	j	0	1	2	399
7	1	40	1	NaN	0	400	502	NaN	0.25	1088.09837512672	k	NaN	2	NaN	400
7	1	41	0	1	0	401	391	10	1	870.178157929331	j	1	1	1	391
7	1	42	1	NaN	0	402	503	NaN	1	1157.88044407964	j	NaN	1	NaN	503
7	1	43	0	0.25	0	403	500	11	0.75	1267.50607602298	k	0	2	2	403
7	1	44	1	NaN	0	404	504	NaN	0.5	1379.24631685019	k	NaN	2	NaN	404
7	1	45	1	NaN	0	405	505	NaN	0.25	1929.55891601741	j	NaN	1	NaN	505
7	1	46	0	1	0	406	501	12	1	1066.62342511117	j	1	1	1	501
7	1	47	1	NaN	0	407	506	NaN	0.25	1446.32088998333	j	NaN	1	NaN	506
7	1	48	0	0.25	0	408	400	8	1	1231.48843715899	j	0	1	2	408
7	1	49	0	1	0	409	503	7	1	772.758602164686	j	1	1	1	503
7	1	50	1	NaN	0	410	507	NaN	0.25	1427.34414804727	j	NaN	1	NaN	507
7	1	51	0	0.5	0	411	404	7	1	2025.9166371543	j	0	1	2	411
7	1	52	1	NaN	0	412	508	NaN	0.25	1880.76422316954	j	NaN	1	NaN	412
7	1	53	0	0.25	0	413	505	8	0	1330.03340801224	k	0	2	1	413
7	1	54	1	NaN	0	414	509	NaN	0.25	1640.45876101591	j	NaN	1	NaN	509
7	1	55	1	NaN	0	415	510	NaN	0	1496.04878295213	j	NaN	1	NaN	415
7	1	56	1	NaN	0	416	511	NaN	0.25	1511.53155998327	k	NaN	2	NaN	416
7	1	57	0	0.25	0	417	506	10	0	1558.60449117608	j	0	1	1	417
7	1	58	0	0.25	0	418	507	8	0	1558.40533506125	j	0	1	1	418
7	1	59	1	NaN	0	419	512	NaN	1	1524.25068290904	j	NaN	1	NaN	512
7	1	60	1	NaN	0	420	513	NaN	1	1804.24117809162	j	NaN	1	NaN	513
7	1	61	0	0.25	0	421	412	9	1	2051.57404299825	k	0	2	1	421
7	1	62	1	NaN	0	422	514	NaN	1	1890.62047610059	j	NaN	1	NaN	514
7	1	63	0	0.25	0	423	509	9	0.25	1722.39121701568	k	1	2	1	509
7	1	64	0	0	0	424	415	9	0.5	1226.73585894518	j	0	1	1	424
7	1	65	0	0.25	0	425	416	9	0.75	1763.04758316837	k	0	2	2	425
7	1	66	1	NaN	0	426	515	NaN	0.5	1323.19629215635	k	NaN	2	NaN	426
7	1	67	0	1	0	427	512	8	1	1313.92420292832	k	1	2	1	512
7	1	68	1	NaN	0	428	516	NaN	0	986.876255134121	j	NaN	1	NaN	516
7	1	69	1	NaN	0	429	517	NaN	0.25	1179.12716791034	k	NaN	2	NaN	429
7	1	70	1	NaN	0	430	518	NaN	0	1242.00381687842	k	NaN	2	NaN	430
7	1	71	0	1	0	431	513	11	1	985.619543120265	j	1	1	1	513
7	1	72	0	1	0	432	514	10	1	1687.8765609581	k	1	2	1	514
7	1	73	1	NaN	0	433	519	NaN	0.75	1681.12341198139	j	NaN	1	NaN	433
7	1	74	0	0.5	0	434	426	8	NaN	NaN	NaN	NaN	NaN	2	NaN
7	1	75	1	NaN	0	435	520	NaN	0.25	826.936196070164	k	NaN	2	NaN	520
7	1	76	0	0	0	436	516	8	1	472.627762006596	j	0	1	1	436
7	1	77	1	NaN	0	437	521	NaN	0.75	632.72030511871	k	NaN	2	NaN	437
7	1	78	1	NaN	0	438	522	NaN	0.5	749.733471078798	k	NaN	2	NaN	522
7	1	79	0	0.25	0	439	429	10	0.25	923.865115968511	k	1	2	2	429
7	1	80	1	NaN	0	440	523	NaN	0.75	625.367930158973	j	NaN	1	NaN	440
7	1	81	1	NaN	0	441	524	NaN	0.75	633.862009039149	k	NaN	2	NaN	441
7	1	82	0	0	0	442	430	12	0	752.195585984737	k	0	2	2	442
7	1	83	1	NaN	0	443	525	NaN	0.5	935.371970990673	j	NaN	1	NaN	443
7	1	84	0	0.75	0	444	433	11	0.25	822.043906198815	k	0	2	1	444
7	1	85	0	0.25	0	445	520	10	0.25	869.33133401908	j	1	1	2	520
7	1	86	0	0.75	0	446	437	9	0.75	1012.03770400025	k	1	2	2	437
7	1	87	0	0.5	0	447	522	9	0.5	740.871148183942	k	1	2	2	522
7	1	88	1	NaN	0	448	526	NaN	0.5	628.048005979508	j	NaN	1	NaN	448
7	1	89	0	0.75	0	449	440	9	0.25	801.50556191802	j	0	1	1	449
7	1	90	1	NaN	0	450	527	NaN	0.75	718.916450161487	k	NaN	2	NaN	527
7	2	1	1	NaN	0	1	121	NaN	0	813.869949197397	j	NaN	1	NaN	1
7	2	2	1	NaN	0	2	122	NaN	0.5	611.26437690109	k	NaN	2	NaN	122
7	2	3	1	NaN	0	3	123	NaN	0.75	891.578604001552	j	NaN	1	NaN	3
7	2	4	1	NaN	0	4	124	NaN	0.75	738.947381963953	k	NaN	2	NaN	4
7	2	5	1	NaN	0	5	125	NaN	1	953.494976973161	k	NaN	2	NaN	5
7	2	6	1	NaN	0	6	126	NaN	0.75	1008.61650914885	k	NaN	2	NaN	126
7	2	7	1	NaN	0	7	127	NaN	0	800.398025196046	j	NaN	1	NaN	7
7	2	8	1	NaN	0	8	128	NaN	1	919.967289082706	j	NaN	1	NaN	128
7	2	9	0	0	0	9	1	8	0.75	926.987428916618	j	0	1	1	9
7	2	10	0	0.5	0	10	122	8	0.5	1164.497500984	j	1	1	2	122
7	2	11	1	NaN	0	11	129	NaN	0.5	852.362992940471	j	NaN	1	NaN	129
7	2	12	1	NaN	0	12	130	NaN	0.5	720.624076901004	j	NaN	1	NaN	12
7	2	13	0	0.75	0	13	3	10	0.75	680.458653951064	j	1	1	1	3
7	2	14	1	NaN	0	14	131	NaN	0	854.747830191627	k	NaN	2	NaN	14
7	2	15	0	0.75	0	15	4	11	0.75	797.801855951548	j	1	1	2	4
7	2	16	1	NaN	0	16	132	NaN	0.5	782.602970954031	k	NaN	2	NaN	16
7	2	17	0	1	0	17	5	12	0	714.672287926078	j	0	1	2	17
7	2	18	1	NaN	0	18	133	NaN	0.5	914.817482000217	j	NaN	1	NaN	18
7	2	19	0	0.75	0	19	126	13	0.75	966.699184849858	k	1	2	2	126
7	2	20	1	NaN	0	20	134	NaN	0.75	1040.60116200708	j	NaN	1	NaN	20
7	2	21	0	0	0	21	7	14	0	957.758583826944	k	1	2	1	7
7	2	22	1	NaN	0	22	135	NaN	1	883.868311997503	k	NaN	2	NaN	135
7	2	23	0	1	0	23	128	15	0.5	810.774135868996	j	0	1	1	23
7	2	24	1	NaN	0	24	136	NaN	0.5	1075.98655996844	j	NaN	1	NaN	136
7	2	25	0	0.5	0	25	129	14	0.5	780.224361922592	k	1	2	1	129
7	2	26	0	0.5	0	26	12	14	0.5	795.27877504006	j	1	1	1	12
7	2	27	1	NaN	0	27	137	NaN	0.25	1192.91455787607	k	NaN	2	NaN	137
7	2	28	1	NaN	0	28	138	NaN	0.75	889.212877023965	j	NaN	1	NaN	28
7	2	29	0	0	0	29	14	15	0	904.285002034158	k	1	2	2	14
7	2	30	0	0.5	0	30	18	12	0.5	1007.54800299183	j	1	1	1	18
7	2	31	0	0.5	0	31	16	15	0	1238.61653008498	j	0	1	2	31
7	2	32	0	0.75	0	32	20	12	0.75	902.108400128782	j	1	1	1	20
7	2	33	1	NaN	0	33	139	NaN	0.5	795.912197092548	j	NaN	1	NaN	33
7	2	34	1	NaN	0	34	140	NaN	1	1043.1524629239	j	NaN	1	NaN	34
7	2	35	0	0.5	0	35	136	11	1	1467.49056293629	j	0	1	1	35
7	2	36	1	NaN	0	36	141	NaN	1	971.398178953677	j	NaN	1	NaN	36
7	2	37	0	1	0	37	135	15	1	936.785925878212	j	1	1	2	135
7	2	38	0	0.75	0	38	28	10	0.75	919.709766050801	k	1	2	1	28
7	2	39	1	NaN	0	39	142	NaN	0.75	806.086224038154	j	NaN	1	NaN	142
7	2	40	0	0.25	0	40	137	13	0.25	813.231041887775	j	1	1	2	137
7	2	41	1	NaN	0	41	143	NaN	0	877.203257987276	k	NaN	2	NaN	143
7	2	42	1	NaN	0	42	144	NaN	1	1108.25406992808	k	NaN	2	NaN	144
7	2	43	0	0.5	0	43	33	10	0.5	1172.41963301785	j	1	1	1	33
7	2	44	0	1	0	44	34	10	1	809.519986854866	k	1	2	1	34
7	2	45	0	1	0	45	36	9	1	649.541078135371	j	1	1	1	36
7	2	46	1	NaN	0	46	145	NaN	0.5	760.947576025501	k	NaN	2	NaN	46
7	2	47	0	0.75	0	47	142	8	0.75	725.645725848153	k	1	2	1	142
7	2	48	1	NaN	0	48	146	NaN	0.75	949.140708893538	k	NaN	2	NaN	146
7	2	49	0	0	0	49	143	8	1	915.966168045998	j	0	1	2	49
7	2	50	1	NaN	0	50	147	NaN	1	843.633634969592	k	NaN	2	NaN	50
7	2	51	0	1	0	51	144	9	1	850.739417830482	k	1	2	2	144
7	2	52	1	NaN	0	52	148	NaN	1	1017.78956409544	j	NaN	1	NaN	148
7	2	53	1	NaN	0	53	149	NaN	0.75	1106.02727718651	k	NaN	2	NaN	149
7	2	54	0	0.5	0	54	46	8	0	1714.63784412481	j	0	1	2	54
7	2	55	0	0.75	0	55	146	7	0.75	729.603435844183	k	1	2	2	146
7	2	56	1	NaN	0	56	150	NaN	0.25	743.995423195884	k	NaN	2	NaN	56
7	2	57	1	NaN	0	57	151	NaN	0.5	1278.85682601482	j	NaN	1	NaN	151
7	2	58	0	1	0	58	50	8	1	661.099778022617	k	1	2	2	50
7	2	59	0	1	0	59	148	7	1	684.353505959734	k	1	2	1	148
7	2	60	1	NaN	0	60	152	NaN	0.25	1291.54555592686	j	NaN	1	NaN	152
7	2	61	1	NaN	0	61	153	NaN	0.75	1105.53134419024	j	NaN	1	NaN	153
7	2	62	1	NaN	0	62	154	NaN	0	1114.10429305397	j	NaN	1	NaN	62
7	2	63	1	NaN	0	63	155	NaN	0.75	1184.00022597052	j	NaN	1	NaN	155
7	2	64	1	NaN	0	64	156	NaN	1	1336.02242101915	j	NaN	1	NaN	64
7	2	65	0	0.75	0	65	149	12	0.75	1118.67333389819	k	1	2	2	149
7	2	66	1	NaN	0	66	157	NaN	0.25	1365.94156711362	j	NaN	1	NaN	66
7	2	67	0	0.25	0	67	56	11	0.25	900.36176587455	j	0	1	2	67
7	2	68	0	0.5	0	68	151	11	0.5	1314.84371097758	k	0	2	1	68
7	2	69	0	0.25	0	69	152	9	0.75	1000.382960774	k	0	2	1	69
7	2	70	1	NaN	0	70	158	NaN	0.25	1001.06312404387	j	NaN	1	NaN	158
7	2	71	0	0.75	0	71	153	10	0.75	893.901169067249	k	1	2	1	153
7	2	72	1	NaN	0	72	159	NaN	0.25	989.278558874503	k	NaN	2	NaN	159
7	2	73	0	0	0	73	62	11	0.25	1133.8462010026	j	0	1	1	73
7	2	74	1	NaN	0	74	160	NaN	0.25	1428.4140621312	j	NaN	1	NaN	74
7	2	75	1	NaN	0	75	161	NaN	0.25	1178.79312904552	k	NaN	2	NaN	75
7	2	76	1	NaN	0	76	162	NaN	0	793.827306013554	k	NaN	2	NaN	162
7	2	77	0	0.75	0	77	155	14	0.75	888.731271959841	j	1	1	1	155
7	2	78	1	NaN	0	78	163	NaN	0.25	1097.76123496704	j	NaN	1	NaN	78
7	2	79	0	1	0	79	64	15	1	959.705353947356	k	1	2	1	64
7	2	80	1	NaN	0	80	164	NaN	1	718.809189973399	k	NaN	2	NaN	164
7	2	81	0	0.25	0	81	66	15	0.25	877.312249969691	k	0	2	1	81
7	2	82	1	NaN	0	82	165	NaN	0.25	949.332522926852	k	NaN	2	NaN	82
7	2	83	0	0.25	0	83	158	13	1	859.428852098063	j	0	1	1	83
7	2	84	0	0.25	0	84	74	10	1	1291.64891410619	j	0	1	1	84
7	2	85	1	NaN	0	85	166	NaN	0	1001.05682108551	k	NaN	2	NaN	85
7	2	86	0	0.25	0	86	159	14	0	1000.4165219143	k	0	2	2	86
7	2	87	1	NaN	0	87	167	NaN	0	1063.37638199329	j	NaN	1	NaN	167
7	2	88	1	NaN	0	88	168	NaN	0.75	1166.0116519779	j	NaN	1	NaN	88
7	2	89	0	0.25	0	89	75	14	0.5	1452.59905303828	j	0	1	2	89
7	2	90	0	0	0	90	162	14	0.25	1164.60765502416	j	0	1	2	90
8	1	1	1	NaN	0	361	481	NaN	1	709.851034916937	j	NaN	1	NaN	481
8	1	2	1	NaN	0	362	482	NaN	0.75	1052.61871311814	j	NaN	1	NaN	482
8	1	3	1	NaN	0	363	483	NaN	0.25	970.392537070438	k	NaN	2	NaN	483
8	1	4	1	NaN	0	364	484	NaN	0.25	1122.83349898644	j	NaN	1	NaN	484
8	1	5	1	NaN	0	365	485	NaN	1	1392.36587285995	j	NaN	1	NaN	485
8	1	6	1	NaN	0	366	486	NaN	0	1448.48370109685	k	NaN	2	NaN	366
8	1	7	1	NaN	0	367	487	NaN	0.5	1472.04328514636	k	NaN	2	NaN	487
8	1	8	0	1	0	368	481	7	1	1199.49942990206	j	1	1	1	481
8	1	9	1	NaN	0	369	488	NaN	NaN	NaN	NaN	NaN	NaN	NaN	NaN
8	1	10	1	NaN	0	370	489	NaN	0.75	944.232812151313	k	NaN	2	NaN	370
8	1	11	0	0.75	0	371	482	9	0.75	671.484967926517	k	1	2	1	482
8	1	12	0	0.25	0	372	483	9	0	944.446630077437	k	0	2	2	372
8	1	13	1	NaN	0	373	490	NaN	0.25	1287.50167484395	j	NaN	1	NaN	373
8	1	14	0	0.25	0	374	484	10	0.75	1006.75242091529	k	0	2	1	374
8	1	15	1	NaN	0	375	491	NaN	1	1071.77864294499	j	NaN	1	NaN	491
8	1	16	0	1	0	376	485	11	1	686.217763926834	j	1	1	1	485
8	1	17	0	0.5	0	377	487	10	0.5	1405.80820920877	k	0	2	2	377
8	1	18	1	NaN	0	378	492	NaN	0.5	1199.19790397398	j	NaN	1	NaN	378
8	1	19	0	0	0	379	366	13	0.75	974.493625108153	j	0	1	2	379
8	1	20	0	0.75	0	380	370	10	0	1445.05973695777	j	0	1	2	380
8	1	21	0	NaN	1	381	369	12	1	1267.71732093766	j	1	1	NaN	369
8	1	22	1	NaN	0	382	493	NaN	0.75	1081.18855091743	j	NaN	1	NaN	382
8	1	23	0	0.25	0	383	373	10	1	1343.19050097838	j	0	1	1	383
8	1	24	1	NaN	0	384	494	NaN	0.25	1485.64970702864	k	NaN	2	NaN	384
8	1	25	1	NaN	0	385	495	NaN	1	1027.6330509223	j	NaN	1	NaN	495
8	1	26	1	NaN	0	386	496	NaN	0	1153.07830600068	j	NaN	1	NaN	386
8	1	27	1	NaN	0	387	497	NaN	0.5	1089.82224902138	k	NaN	2	NaN	497
8	1	28	1	NaN	0	388	498	NaN	0.5	1345.69645300508	j	NaN	1	NaN	388
8	1	29	0	1	0	389	491	14	0.5	1304.8743440304	j	0	1	1	389
8	1	30	0	0.5	0	390	378	12	0.5	1142.9037139751	k	0	2	1	390
8	1	31	1	NaN	0	391	499	NaN	0	1087.77943090536	j	NaN	1	NaN	391
8	1	32	1	NaN	0	392	500	NaN	0.5	1270.36038786173	j	NaN	1	NaN	500
8	1	33	0	0.75	0	393	382	11	0.75	1406.76196292043	k	1	2	1	382
8	1	34	1	NaN	0	394	501	NaN	0	1461.43272798508	k	NaN	2	NaN	501
8	1	35	0	0.25	0	395	384	11	0.25	1828.22164497338	j	0	1	2	395
8	1	36	0	1	0	396	495	11	1	868.348070885986	j	1	1	1	495
8	1	37	0	0	0	397	386	11	0.25	1076.34783815593	k	0	2	1	397
8	1	38	0	0.5	0	398	497	11	0	1226.33949806914	k	0	2	2	398
8	1	39	0	0.5	0	399	388	11	0	978.432927979156	k	0	2	1	399
8	1	40	1	NaN	0	400	502	NaN	0	1752.11688899435	k	NaN	2	NaN	400
8	1	41	0	0	0	401	391	10	0.75	726.65425715968	k	0	2	1	401
8	1	42	1	NaN	0	402	503	NaN	0.25	1212.12624781765	j	NaN	1	NaN	503
8	1	43	0	0.5	0	403	500	11	0.25	964.367158943787	k	0	2	1	403
8	1	44	1	NaN	0	404	504	NaN	0.5	1290.19982088357	j	NaN	1	NaN	504
8	1	45	1	NaN	0	405	505	NaN	0.75	706.373562105	k	NaN	2	NaN	505
8	1	46	0	0	0	406	501	12	0.75	1062.40525119938	j	0	1	2	406
8	1	47	1	NaN	0	407	506	NaN	0	1056.58768001013	j	NaN	1	NaN	506
8	1	48	0	0	0	408	400	8	0	1191.60014996305	j	0	1	2	408
8	1	49	0	0.25	0	409	503	7	0.25	1240.67394714803	k	1	2	1	503
8	1	50	1	NaN	0	410	507	NaN	0.5	1040.21809902042	k	NaN	2	NaN	410
8	1	51	0	0.5	0	411	504	7	0.5	968.10063184239	k	0	2	1	411
8	1	52	1	NaN	0	412	508	NaN	0.5	1133.64219502546	j	NaN	1	NaN	508
8	1	53	0	0.75	0	413	505	8	0.75	1415.6946700532	k	1	2	2	505
8	1	54	1	NaN	0	414	509	NaN	0.75	1012.28536199778	k	NaN	2	NaN	509
8	1	55	1	NaN	0	415	510	NaN	0.75	1009.55853704363	k	NaN	2	NaN	415
8	1	56	1	NaN	0	416	511	NaN	0.75	1335.87516797706	k	NaN	2	NaN	416
8	1	57	0	0	0	417	506	10	0.25	872.098725987598	k	0	2	1	417
8	1	58	0	0.5	0	418	410	8	0.25	1071.83175580576	k	0	2	2	418
8	1	59	1	NaN	0	419	512	NaN	0.25	1175.97414785996	k	NaN	2	NaN	512
8	1	60	1	NaN	0	420	513	NaN	1	1231.22312594205	j	NaN	1	NaN	513
8	1	61	0	0.5	0	421	508	9	1	1406.11566603184	k	0	2	1	421
8	1	62	1	NaN	0	422	514	NaN	0.75	1205.05508012138	j	NaN	1	NaN	514
8	1	63	0	0.75	0	423	509	9	0.25	1444.78774885647	k	0	2	2	423
8	1	64	0	0.75	0	424	415	9	0	1243.10759291984	j	0	1	2	424
8	1	65	0	0.75	0	425	416	9	0.25	1227.06245607696	j	0	1	2	425
8	1	66	1	NaN	0	426	515	NaN	0	993.222763994709	k	NaN	2	NaN	426
8	1	67	0	0.25	0	427	512	8	1	1600.37445998751	j	0	1	2	427
8	1	68	1	NaN	0	428	516	NaN	0.75	1063.78071010113	k	NaN	2	NaN	428
8	1	69	1	NaN	0	429	517	NaN	0	982.923658099025	j	NaN	1	NaN	429
8	1	70	1	NaN	0	430	518	NaN	1	1629.09615691751	j	NaN	1	NaN	430
8	1	71	0	1	0	431	513	11	1	798.735147109255	k	1	2	1	513
8	1	72	0	0.75	0	432	514	10	1	1083.31217383966	k	0	2	1	432
8	1	73	1	NaN	0	433	519	NaN	0.5	1594.87481997348	k	NaN	2	NaN	433
8	1	74	0	0	0	434	426	8	0.25	714.569597039372	k	0	2	2	434
8	1	75	1	NaN	0	435	520	NaN	0.5	1336.78790810518	j	NaN	1	NaN	520
8	1	76	0	0.75	0	436	428	8	0	1038.42632193118	k	0	2	2	436
8	1	77	1	NaN	0	437	521	NaN	0.5	1051.94948380813	k	NaN	2	NaN	521
8	1	78	1	NaN	0	438	522	NaN	0.5	1138.38573195972	k	NaN	2	NaN	522
8	1	79	0	0	0	439	429	10	0	978.415928082541	j	0	1	1	439
8	1	80	1	NaN	0	440	523	NaN	0.5	1280.9461040888	k	NaN	2	NaN	440
8	1	81	1	NaN	0	441	524	NaN	1	1129.5616470743	j	NaN	1	NaN	524
8	1	82	0	1	0	442	430	12	1	782.479701098055	j	1	1	1	430
8	1	83	1	NaN	0	443	525	NaN	0.75	957.269456936046	k	NaN	2	NaN	443
8	1	84	0	0.5	0	444	433	11	0.25	929.86127291806	k	0	2	2	444
8	1	85	0	0.5	0	445	520	10	0.5	1873.97073488683	k	0	2	1	445
8	1	86	0	0.5	0	446	521	9	0.25	1477.89250011556	j	0	1	2	446
8	1	87	0	0.5	0	447	522	9	0	975.454075960442	k	0	2	2	447
8	1	88	1	NaN	0	448	526	NaN	0.25	1054.01778500527	k	NaN	2	NaN	448
8	1	89	0	0.5	0	449	440	9	1	1396.31860516965	k	0	2	2	449
8	1	90	1	NaN	0	450	527	NaN	1	1092.13779098354	k	NaN	2	NaN	527
8	2	1	1	NaN	0	1	121	NaN	0	942.782752215862	j	NaN	1	NaN	121
8	2	2	1	NaN	0	2	122	NaN	1	925.701223080978	j	NaN	1	NaN	2
8	2	3	1	NaN	0	3	123	NaN	0.75	940.595118096098	j	NaN	1	NaN	123
8	2	4	1	NaN	0	4	124	NaN	1	869.180366862565	j	NaN	1	NaN	124
8	2	5	1	NaN	0	5	125	NaN	0.75	1073.05540400557	j	NaN	1	NaN	125
8	2	6	1	NaN	0	6	126	NaN	0.5	906.235370086506	j	NaN	1	NaN	126
8	2	7	1	NaN	0	7	127	NaN	0	944.781044963747	j	NaN	1	NaN	127
8	2	8	1	NaN	0	8	128	NaN	1	640.0128940586	j	NaN	1	NaN	128
8	2	9	0	0	0	9	121	8	0.75	742.276990087703	k	0	2	1	9
8	2	10	0	1	0	10	2	8	1	755.594662856311	j	1	1	1	2
8	2	11	1	NaN	0	11	129	NaN	0	1370.81807199866	j	NaN	1	NaN	129
8	2	12	1	NaN	0	12	130	NaN	0.25	915.682228980586	k	NaN	2	NaN	130
8	2	13	0	0.75	0	13	123	10	0	1056.92335101776	j	0	1	1	13
8	2	14	1	NaN	0	14	131	NaN	1	856.435511028394	j	NaN	1	NaN	14
8	2	15	0	1	0	15	124	11	1	1136.96129992604	k	1	2	1	124
8	2	16	1	NaN	0	16	132	NaN	0.25	1144.10464698449	k	NaN	2	NaN	132
8	2	17	0	0.75	0	17	125	12	0.5	1118.68454585783	k	0	2	1	17
8	2	18	1	NaN	0	18	133	NaN	0.25	860.423238947988	j	NaN	1	NaN	18
8	2	19	0	0.5	0	19	126	13	0.25	1234.36696105637	k	0	2	1	19
8	2	20	1	NaN	0	20	134	NaN	0.75	1281.24111285433	k	NaN	2	NaN	20
8	2	21	0	0	0	21	127	14	0.5	880.746630951762	j	0	1	1	21
8	2	22	1	NaN	0	22	135	NaN	0.5	1429.96758408844	j	NaN	1	NaN	22
8	2	23	0	1	0	23	128	15	1	1548.95509500057	k	1	2	1	128
8	2	24	1	NaN	0	24	136	NaN	0	994.207407115027	j	NaN	1	NaN	136
8	2	25	0	0	0	25	129	14	0	1026.89319592901	k	0	2	1	25
8	2	26	0	0.25	0	26	130	14	0.5	1048.12957998365	j	0	1	2	26
8	2	27	1	NaN	0	27	137	NaN	0	1103.4151990898	k	NaN	2	NaN	137
8	2	28	1	NaN	0	28	138	NaN	0.75	1151.87038108706	j	NaN	1	NaN	138
8	2	29	0	1	0	29	14	15	1	701.911060139537	j	1	1	1	14
8	2	30	0	0.25	0	30	18	12	1	846.831273054704	j	0	1	1	30
8	2	31	0	0.25	0	31	132	15	0.5	1181.86015193351	j	0	1	2	31
8	2	32	0	0.75	0	32	20	12	0.25	1109.28264679387	k	0	2	2	32
8	2	33	1	NaN	0	33	139	NaN	0.75	1036.30417282693	j	NaN	1	NaN	33
8	2	34	1	NaN	0	34	140	NaN	1	923.569095088169	k	NaN	2	NaN	140
8	2	35	0	0	0	35	136	11	1	1121.91693298519	j	0	1	1	35
8	2	36	1	NaN	0	36	141	NaN	0.75	1297.67470317893	j	NaN	1	NaN	36
8	2	37	0	0.5	0	37	22	15	0.5	711.621577152982	k	0	2	1	37
8	2	38	0	0.75	0	38	138	10	0.5	1318.75036587007	j	0	1	1	38
8	2	39	1	NaN	0	39	142	NaN	0.25	782.362074125558	k	NaN	2	NaN	39
8	2	40	0	0	0	40	137	13	0.5	1277.75211189874	j	0	1	2	40
8	2	41	1	NaN	0	41	143	NaN	0	1053.34591097198	k	NaN	2	NaN	143
8	2	42	1	NaN	0	42	144	NaN	0	1020.93281899579	j	NaN	1	NaN	144
8	2	43	0	0.75	0	43	33	10	0	1004.30068909191	k	0	2	1	43
8	2	44	0	1	0	44	140	10	1	723.922680132091	k	1	2	2	140
8	2	45	0	0.75	0	45	36	9	0.5	1146.96749881841	j	0	1	1	45
8	2	46	1	NaN	0	46	145	NaN	0.75	793.497411999851	j	NaN	1	NaN	46
8	2	47	0	0.25	0	47	39	8	0.25	808.177823200822	j	0	1	2	47
8	2	48	1	NaN	0	48	146	NaN	0	1127.49567604624	k	NaN	2	NaN	146
8	2	49	0	0	0	49	143	8	0.75	623.197030974552	k	0	2	2	49
8	2	50	1	NaN	0	50	147	NaN	1	1264.10006778315	k	NaN	2	NaN	147
8	2	51	0	0	0	51	144	9	0	942.111521959305	j	0	1	1	51
8	2	52	1	NaN	0	52	148	NaN	0.5	789.159645093605	k	NaN	2	NaN	52
8	2	53	1	NaN	0	53	149	NaN	0.25	1301.00415996276	j	NaN	1	NaN	53
8	2	54	0	0.75	0	54	46	8	1	1275.53642890416	j	0	1	1	54
8	2	55	0	0	0	55	146	7	0	747.467579087242	k	0	2	2	55
8	2	56	1	NaN	0	56	150	NaN	0.25	882.02489586547	k	NaN	2	NaN	56
8	2	57	1	NaN	0	57	151	NaN	1	1217.95160300098	k	NaN	2	NaN	151
8	2	58	0	1	0	58	147	8	1	754.897163948044	k	1	2	2	147
8	2	59	0	0.5	0	59	52	7	0.75	1256.77930214442	k	0	2	2	59
8	2	60	1	NaN	0	60	152	NaN	0.5	791.942707030103	j	NaN	1	NaN	152
8	2	61	1	NaN	0	61	153	NaN	1	1343.41008006595	k	NaN	2	NaN	61
8	2	62	1	NaN	0	62	154	NaN	0.25	782.849651062861	j	NaN	1	NaN	154
8	2	63	1	NaN	0	63	155	NaN	0	851.915886858478	k	NaN	2	NaN	63
8	2	64	1	NaN	0	64	156	NaN	0.75	1667.14952304028	j	NaN	1	NaN	156
8	2	65	0	0.25	0	65	53	12	1	2258.13557300717	j	0	1	1	65
8	2	66	1	NaN	0	66	157	NaN	0.5	1082.82486605458	k	NaN	2	NaN	66
8	2	67	0	0.25	0	67	56	11	0	1081.70407405123	k	0	2	2	67
8	2	68	0	1	0	68	151	11	1	792.791340965778	k	1	2	2	151
8	2	69	0	0.5	0	69	152	9	0.5	1079.47354298085	k	0	2	1	69
8	2	70	1	NaN	0	70	158	NaN	0.25	1062.91294982657	j	NaN	1	NaN	158
8	2	71	0	1	0	71	61	10	1	710.858583915979	k	1	2	2	61
8	2	72	1	NaN	0	72	159	NaN	0.75	1253.83365200832	j	NaN	1	NaN	72
8	2	73	0	0.25	0	73	154	11	0	1204.87567316741	j	0	1	1	73
8	2	74	1	NaN	0	74	160	NaN	0.75	821.167725836858	k	NaN	2	NaN	74
8	2	75	1	NaN	0	75	161	NaN	0.75	1251.74439884722	k	NaN	2	NaN	75
8	2	76	1	NaN	0	76	162	NaN	0.25	1123.95275197923	j	NaN	1	NaN	76
8	2	77	0	0	0	77	63	14	0	899.283719947562	j	0	1	2	77
8	2	78	1	NaN	0	78	163	NaN	0.25	1068.42455989681	k	NaN	2	NaN	163
8	2	79	0	0.75	0	79	156	15	0.75	939.418608089909	k	0	2	1	79
8	2	80	1	NaN	0	80	164	NaN	0.75	793.424764880911	j	NaN	1	NaN	164
8	2	81	0	0.5	0	81	66	15	0.5	752.743982942775	j	0	1	2	81
8	2	82	1	NaN	0	82	165	NaN	1	1320.48384007066	k	NaN	2	NaN	82
8	2	83	0	0.25	0	83	158	13	0.5	1071.19992910884	k	0	2	1	83
8	2	84	0	0.75	0	84	74	10	1	887.382625835016	j	0	1	2	84
8	2	85	1	NaN	0	85	166	NaN	0.25	1111.04444181547	j	NaN	1	NaN	85
8	2	86	0	0.75	0	86	72	14	1	934.798710048199	j	0	1	1	86
8	2	87	1	NaN	0	87	167	NaN	0.25	844.594612019137	k	NaN	2	NaN	167
8	2	88	1	NaN	0	88	168	NaN	1	957.07046194002	j	NaN	1	NaN	88
8	2	89	0	0.75	0	89	75	14	0.25	1331.15804684348	j	0	1	2	89
8	2	90	0	0.25	0	90	76	14	1	843.228190904483	k	0	2	1	90
9	1	1	1	NaN	0	1	121	NaN	0.75	666.178765939549	k	NaN	2	NaN	121
9	1	2	1	NaN	0	2	122	NaN	0	813.583272974938	j	NaN	1	NaN	2
9	1	3	1	NaN	0	3	123	NaN	0.5	891.182463150471	k	NaN	2	NaN	3
9	1	4	1	NaN	0	4	124	NaN	1	703.604266047478	j	NaN	1	NaN	4
9	1	5	1	NaN	0	5	125	NaN	1	783.15070620738	j	NaN	1	NaN	125
9	1	6	1	NaN	0	6	126	NaN	1	1116.94459686987	j	NaN	1	NaN	126
9	1	7	1	NaN	0	7	127	NaN	0.75	764.650541823357	j	NaN	1	NaN	127
9	1	8	0	0.75	0	8	121	7	0.75	929.8786430154	k	1	2	2	121
9	1	9	0	0	0	9	2	7	0.75	985.629160888493	j	0	1	1	9
9	1	10	1	NaN	0	10	128	NaN	1	688.457516022027	j	NaN	1	NaN	10
9	1	11	1	NaN	0	11	129	NaN	0.25	1294.70681096427	j	NaN	1	NaN	129
9	1	12	1	NaN	0	12	130	NaN	0.5	1379.08783811145	k	NaN	2	NaN	12
9	1	13	0	0.5	0	13	3	10	0.25	714.550672797486	j	0	1	2	13
9	1	14	1	NaN	0	14	131	NaN	0.75	1489.28531492129	k	NaN	2	NaN	14
9	1	15	0	1	0	15	4	11	0	1105.07603199221	j	0	1	1	15
9	1	16	1	NaN	0	16	132	NaN	0.75	1248.05412814021	k	NaN	2	NaN	16
9	1	17	0	1	0	17	125	12	1	869.970583822578	j	1	1	1	125
9	1	18	1	NaN	0	18	133	NaN	0	909.970127046108	j	NaN	1	NaN	18
9	1	19	0	0.75	0	19	127	12	0.75	939.434434054419	j	1	1	1	127
9	1	20	0	1	0	20	126	14	0.75	2130.1770680584	k	0	2	1	20
9	1	21	0	1	0	21	10	11	1	1393.50466290489	j	1	1	1	10
9	1	22	0	0.25	0	22	129	11	0	1185.0927460473	j	0	1	1	22
9	1	23	1	NaN	0	23	134	NaN	0.75	1176.15387495607	k	NaN	2	NaN	134
9	1	24	0	0.5	0	24	12	12	1	758.01776885055	j	0	1	2	24
9	1	25	1	NaN	0	25	135	NaN	0.5	957.613293081522	j	NaN	1	NaN	25
9	1	26	0	0.75	0	26	16	10	NaN	NaN	NaN	NaN	NaN	2	NaN
9	1	27	0	0.75	0	27	14	13	1	624.665000010282	j	0	1	2	27
9	1	28	1	NaN	0	28	136	NaN	1	969.15739797987	k	NaN	2	NaN	28
9	1	29	0	0	0	29	18	11	0	1287.13157796301	j	1	1	1	18
9	1	30	1	NaN	0	30	137	NaN	0.75	2207.40307006054	k	NaN	2	NaN	30
9	1	31	1	NaN	0	31	138	NaN	0.5	550.086483824998	j	NaN	1	NaN	138
9	1	32	0	0.75	0	32	134	9	0.25	804.918045876548	k	0	2	2	32
9	1	33	1	NaN	0	33	139	NaN	0	995.091275079176	j	NaN	1	NaN	33
9	1	34	0	0.5	0	34	25	9	0.25	1242.41638719104	k	0	2	1	34
9	1	35	1	NaN	0	35	140	NaN	1	1377.97263916582	j	NaN	1	NaN	140
9	1	36	0	1	0	36	28	8	1	832.64199597761	k	1	2	2	28
9	1	37	0	0.75	0	37	30	7	0.75	1013.99372005835	k	1	2	2	30
9	1	38	1	NaN	0	38	141	NaN	0.25	1517.46870204806	j	NaN	1	NaN	141
9	1	39	1	NaN	0	39	142	NaN	0	1362.42342600599	k	NaN	2	NaN	142
9	1	40	0	0.5	0	40	138	9	1	754.395060939714	j	0	1	1	40
9	1	41	0	0	0	41	33	8	0.25	793.894242029637	k	0	2	1	41
9	1	42	1	NaN	0	42	143	NaN	0.25	1170.4675569199	j	NaN	1	NaN	143
9	1	43	0	1	0	43	140	8	0.5	808.080659015104	k	0	2	1	43
9	1	44	1	NaN	0	44	144	NaN	0.25	1905.57425795123	j	NaN	1	NaN	44
9	1	45	0	0.25	0	45	141	7	0.25	2110.73350603692	k	0	2	1	45
9	1	46	1	NaN	0	46	145	NaN	0.75	1271.1877420079	j	NaN	1	NaN	145
9	1	47	0	0	0	47	142	8	0.5	1781.73427400179	j	0	1	2	47
9	1	48	1	NaN	0	48	146	NaN	0.25	1166.6250419803	k	NaN	2	NaN	146
9	1	49	0	0.25	0	49	143	7	0.25	761.797497980297	k	0	2	1	49
9	1	50	1	NaN	0	50	147	NaN	0.75	843.05520914495	j	NaN	1	NaN	147
9	1	51	1	NaN	0	51	148	NaN	0.5	657.736381981522	k	NaN	2	NaN	148
9	1	52	0	0.25	0	52	44	8	0.25	560.895913979039	j	1	1	1	44
9	1	53	0	0.75	0	53	145	7	0	704.192141070962	j	0	1	1	53
9	1	54	1	NaN	0	54	149	NaN	0.5	574.283978901803	k	NaN	2	NaN	149
9	1	55	0	0.25	0	55	146	7	0.5	1078.83580913767	j	0	1	2	55
9	1	56	1	NaN	0	56	150	NaN	0	797.41744697094	j	NaN	1	NaN	56
9	1	57	0	0.75	0	57	147	7	0.75	493.381846928969	k	1	2	1	147
9	1	58	1	NaN	0	58	151	NaN	0	611.010245978832	j	NaN	1	NaN	58
9	1	59	1	NaN	0	59	152	NaN	1	656.413299031556	k	NaN	2	NaN	59
9	1	60	0	0.5	0	60	148	9	0	407.360076904297	j	0	1	2	60
9	1	61	1	NaN	0	61	153	NaN	1	1208.02836399525	k	NaN	2	NaN	61
9	1	62	1	NaN	0	62	154	NaN	1	1527.92318793945	j	NaN	1	NaN	154
9	1	63	0	0.5	0	63	149	9	0.25	1206.55498700216	j	0	1	2	63
9	1	64	1	NaN	0	64	155	NaN	1	1252.9861391522	k	NaN	2	NaN	64
9	1	65	0	0	0	65	56	9	1	577.364630065858	j	0	1	1	65
9	1	66	1	NaN	0	66	156	NaN	0	929.070210084319	k	NaN	2	NaN	66
9	1	67	1	NaN	0	67	157	NaN	0.75	664.050820982084	j	NaN	1	NaN	157
9	1	68	1	NaN	0	68	158	NaN	0.5	1198.59251589514	k	NaN	2	NaN	68
9	1	69	0	0	0	69	58	11	0	597.729954170063	j	0	1	1	69
9	1	70	0	1	0	70	59	11	1	1140.40837204084	j	1	1	2	59
9	1	71	0	1	0	71	61	10	0.75	561.994242947549	k	0	2	2	71
9	1	72	1	NaN	0	72	159	NaN	0.75	705.872738035396	j	NaN	1	NaN	72
9	1	73	0	1	0	73	154	11	1	885.914292884991	j	1	1	1	154
9	1	74	0	1	0	74	64	10	0.25	542.110434034839	j	0	1	2	74
9	1	75	0	0	0	75	66	9	0	1387.6706729643	k	0	2	2	75
9	1	76	1	NaN	0	76	160	NaN	0.5	1913.830045145	j	NaN	1	NaN	76
9	1	77	0	0.75	0	77	157	10	0.75	1218.03393983282	j	1	1	1	157
9	1	78	1	NaN	0	78	161	NaN	0	1182.69548099488	j	NaN	1	NaN	161
9	1	79	1	NaN	0	79	162	NaN	1	1013.00185988657	j	NaN	1	NaN	162
9	1	80	0	0.5	0	80	68	12	0.5	1732.63426986523	k	1	2	2	68
9	1	81	0	0.75	0	81	72	9	0.75	1354.00023194961	j	0	1	1	81
9	1	82	1	NaN	0	82	163	NaN	1	985.477060079575	j	NaN	1	NaN	82
9	1	83	0	0.5	0	83	76	7	0.5	1624.74181014113	j	0	1	1	83
9	1	84	1	NaN	0	84	164	NaN	0.5	1103.86634804308	j	NaN	1	NaN	84
9	1	85	1	NaN	0	85	165	NaN	1	797.294354997575	j	NaN	1	NaN	165
9	1	86	1	NaN	0	86	166	NaN	0.75	861.654667882249	j	NaN	1	NaN	166
9	1	87	0	0	0	87	161	9	0	1851.27018089406	k	0	2	1	87
9	1	88	1	NaN	0	88	167	NaN	0	802.449662936851	j	NaN	1	NaN	88
9	1	89	0	1	0	89	162	10	1	567.848806967959	j	1	1	1	162
9	1	90	0	1	0	90	82	8	1	384.147193050012	j	1	1	1	82
9	2	1	1	NaN	0	181	301	NaN	0	656.18565515615	j	NaN	1	NaN	181
9	2	2	1	NaN	0	182	302	NaN	0.75	1501.58780696802	j	NaN	1	NaN	302
9	2	3	1	NaN	0	183	303	NaN	0.5	1919.53262197785	k	NaN	2	NaN	303
9	2	4	1	NaN	0	184	304	NaN	0.25	684.413369046524	j	NaN	1	NaN	304
9	2	5	1	NaN	0	185	305	NaN	0.75	890.002192929387	k	NaN	2	NaN	185
9	2	6	1	NaN	0	186	306	NaN	0	712.6188010443	j	NaN	1	NaN	306
9	2	7	1	NaN	0	187	307	NaN	0.25	1719.89397704601	k	NaN	2	NaN	307
9	2	8	1	NaN	0	188	308	NaN	0	1581.3595559448	j	NaN	1	NaN	188
9	2	9	0	0	0	189	181	8	0	1043.05511107668	j	1	1	1	181
9	2	10	0	0.75	0	190	302	8	0.75	2164.21570908278	k	1	2	1	302
9	2	11	0	0.5	0	191	303	8	0.5	1507.6962641906	j	1	1	2	303
9	2	12	1	NaN	0	192	309	NaN	0.75	1228.42286108062	k	NaN	2	NaN	309
9	2	13	1	NaN	0	193	310	NaN	0	1258.60152416863	j	NaN	1	NaN	310
9	2	14	0	0.25	0	194	304	10	NaN	NaN	NaN	NaN	NaN	1	NaN
9	2	15	1	NaN	0	195	311	NaN	0.75	933.765153866261	j	NaN	1	NaN	195
9	2	16	1	NaN	0	196	312	NaN	1	1091.60654083826	j	NaN	1	NaN	196
9	2	17	0	0.75	0	197	185	12	1	827.132282080129	k	0	2	2	197
9	2	18	1	NaN	0	198	313	NaN	1	1065.50205987878	j	NaN	1	NaN	313
9	2	19	0	0	0	199	306	13	1	1504.29114489816	k	0	2	1	199
9	2	20	0	0.25	0	200	307	13	0.75	664.167783921584	j	0	1	2	200
9	2	21	0	0	0	201	188	13	0.75	2015.81988786347	k	0	2	1	201
9	2	22	1	NaN	0	202	314	NaN	0	1142.11375685409	j	NaN	1	NaN	314
9	2	23	0	0.75	0	203	309	11	0.75	1261.9569490198	j	0	1	2	203
9	2	24	1	NaN	0	204	315	NaN	0.25	1893.93033320084	k	NaN	2	NaN	315
9	2	25	1	NaN	0	205	316	NaN	0.75	1317.80574796721	j	NaN	1	NaN	316
9	2	26	1	NaN	0	206	317	NaN	0.25	1131.55422499403	j	NaN	1	NaN	317
9	2	27	0	0	0	207	310	14	0.75	931.259131990373	j	0	1	1	207
9	2	28	0	1	0	208	313	10	1	923.143248073757	j	1	1	1	313
9	2	29	0	0.75	0	209	195	14	0.75	1178.19559713826	j	1	1	1	195
9	2	30	1	NaN	0	210	318	NaN	0	1048.88543207198	k	NaN	2	NaN	318
9	2	31	0	1	0	211	196	15	0.5	712.089764885604	j	0	1	1	211
9	2	32	0	0	0	212	314	10	0.25	1141.80572307669	k	0	2	1	212
9	2	33	0	0.25	0	213	315	9	0.5	1311.11367093399	j	0	1	2	213
9	2	34	1	NaN	0	214	319	NaN	0	1556.38842494227	k	NaN	2	NaN	319
9	2	35	0	0.75	0	215	316	10	0.75	515.596772078425	j	1	1	1	316
9	2	36	1	NaN	0	216	320	NaN	0.25	610.420441022143	j	NaN	1	NaN	320
9	2	37	1	NaN	0	217	321	NaN	0.75	1170.01383798197	k	NaN	2	NaN	217
9	2	38	0	0.25	0	218	317	12	0.25	946.015873923898	j	1	1	1	317
9	2	39	0	0	0	219	318	9	0	834.305392112583	j	1	1	2	318
9	2	40	1	NaN	0	220	322	NaN	1	1505.15155610628	k	NaN	2	NaN	220
9	2	41	1	NaN	0	221	323	NaN	0.25	1712.25638012402	j	NaN	1	NaN	221
9	2	42	1	NaN	0	222	324	NaN	0.5	1285.92082415707	j	NaN	1	NaN	324
9	2	43	1	NaN	0	223	325	NaN	0.5	1172.90248605423	k	NaN	2	NaN	325
9	2	44	0	0	0	224	319	10	0.5	1219.87114707008	k	0	2	2	224
9	2	45	1	NaN	0	225	326	NaN	0.5	852.496040984988	j	NaN	1	NaN	326
9	2	46	0	0.25	0	226	320	10	0.25	1027.31704502366	k	0	2	1	226
9	2	47	0	0.75	0	227	217	10	0.75	578.390323091298	j	1	1	2	217
9	2	48	0	1	0	228	220	8	0.5	1011.6301740054	k	0	2	2	228
9	2	49	0	0.25	0	229	221	8	0.75	1689.60130494088	k	0	2	1	229
9	2	50	1	NaN	0	230	327	NaN	0.25	1049.2485568393	j	NaN	1	NaN	327
9	2	51	1	NaN	0	231	328	NaN	1	1449.68246598728	k	NaN	2	NaN	328
9	2	52	0	0.5	0	232	324	10	0.75	1222.86110091954	j	0	1	1	232
9	2	53	1	NaN	0	233	329	NaN	0	1024.10340704955	k	NaN	2	NaN	329
9	2	54	1	NaN	0	234	330	NaN	0.5	1015.81577095203	j	NaN	1	NaN	330
9	2	55	1	NaN	0	235	331	NaN	0	1095.16247780994	j	NaN	1	NaN	331
9	2	56	1	NaN	0	236	332	NaN	0	1072.51099916175	j	NaN	1	NaN	236
9	2	57	0	0.5	0	237	325	14	NaN	NaN	NaN	NaN	NaN	2	NaN
9	2	58	0	0.5	0	238	326	13	0.25	1188.46976314671	j	0	1	1	238
9	2	59	0	0.25	0	239	327	9	0.5	995.746765984222	j	0	1	1	239
9	2	60	0	1	0	240	328	9	0.75	923.479540972039	k	0	2	2	240
9	2	61	1	NaN	0	241	333	NaN	0.75	1136.66522689164	j	NaN	1	NaN	241
9	2	62	0	0	0	242	329	9	0.25	1430.66218611784	k	0	2	2	242
9	2	63	0	0.5	0	243	330	9	0.5	1351.72424209304	j	1	1	1	330
9	2	64	1	NaN	0	244	334	NaN	0	847.055690130219	j	NaN	1	NaN	244
9	2	65	1	NaN	0	245	335	NaN	1	1092.57771098055	k	NaN	2	NaN	335
9	2	66	1	NaN	0	246	336	NaN	0.5	1452.87507516332	j	NaN	1	NaN	336
9	2	67	1	NaN	0	247	337	NaN	1	1395.17734502442	k	NaN	2	NaN	247
9	2	68	0	0	0	248	331	13	0.25	1042.77767706662	j	0	1	1	248
9	2	69	0	0	0	249	236	13	1	1665.15090991743	k	0	2	1	249
9	2	70	1	NaN	0	250	338	NaN	1	544.40000699833	j	NaN	1	NaN	250
9	2	71	1	NaN	0	251	339	NaN	0.25	942.623279057443	k	NaN	2	NaN	339
9	2	72	1	NaN	0	252	340	NaN	1	1254.91923000664	j	NaN	1	NaN	252
9	2	73	0	0.75	0	253	241	12	0.75	957.528106868267	j	1	1	1	241
9	2	74	0	0	0	254	244	10	0	1036.30962502211	j	0	1	1	254
9	2	75	0	1	0	255	335	10	1	1115.47604785301	j	1	1	2	335
9	2	76	1	NaN	0	256	341	NaN	0	1530.93384508975	k	NaN	2	NaN	256
9	2	77	1	NaN	0	257	342	NaN	0	521.630072966218	j	NaN	1	NaN	342
9	2	78	1	NaN	0	258	343	NaN	0.75	929.571360116825	j	NaN	1	NaN	258
9	2	79	0	0.5	0	259	336	13	0.5	1456.39788615517	k	0	2	1	259
9	2	80	0	1	0	260	247	13	1	1192.23268306814	j	1	1	2	247
9	2	81	1	NaN	0	261	344	NaN	1	1789.0802428592	j	NaN	1	NaN	344
9	2	82	0	1	0	262	252	10	1	758.040721993893	j	1	1	1	252
9	2	83	0	1	0	263	250	13	1	757.710612146184	k	1	2	1	250
9	2	84	1	NaN	0	264	345	NaN	0.25	932.709391927347	j	NaN	1	NaN	345
9	2	85	0	0.25	0	265	339	14	1	674.711522879079	j	0	1	2	265
9	2	86	1	NaN	0	266	346	NaN	0.25	1923.02949307486	j	NaN	1	NaN	266
9	2	87	1	NaN	0	267	347	NaN	0.5	1442.257639952	k	NaN	2	NaN	267
9	2	88	0	0	0	268	256	12	0	528.557796031237	j	0	1	2	268
9	2	89	1	NaN	0	269	348	NaN	0.25	1582.82876689918	j	NaN	1	NaN	348
9	2	90	1	NaN	0	270	349	NaN	0.75	1735.71279994212	k	NaN	2	NaN	270
10	1	1	1	NaN	0	1	121	NaN	1	895.67634195555	k	NaN	2	NaN	1
10	1	2	1	NaN	0	2	122	NaN	0	1003.74027201906	j	NaN	1	NaN	122
10	1	3	1	NaN	0	3	123	NaN	0.5	1072.98824505415	j	NaN	1	NaN	123
10	1	4	1	NaN	0	4	124	NaN	1	983.994098030962	j	NaN	1	NaN	4
10	1	5	1	NaN	0	5	125	NaN	1	1077.01625896152	j	NaN	1	NaN	5
10	1	6	1	NaN	0	6	126	NaN	0.25	1091.02767996956	k	NaN	2	NaN	6
10	1	7	1	NaN	0	7	127	NaN	0.75	1176.76611000206	j	NaN	1	NaN	127
10	1	8	0	1	0	8	1	7	1	730.711227981374	j	1	1	2	1
10	1	9	0	0	0	9	122	7	0.25	831.075622932985	k	0	2	1	9
10	1	10	1	NaN	0	10	128	NaN	0.25	895.113285980187	k	NaN	2	NaN	128
10	1	11	1	NaN	0	11	129	NaN	0.75	913.796085049398	k	NaN	2	NaN	129
10	1	12	1	NaN	0	12	130	NaN	1	1009.5694239717	j	NaN	1	NaN	12
10	1	13	0	0.5	0	13	123	10	0.5	1264.24951397348	k	1	2	1	123
10	1	14	1	NaN	0	14	131	NaN	0.75	1263.71326798107	j	NaN	1	NaN	14
10	1	15	0	1	0	15	4	11	1	886.766525916755	k	1	2	1	4
10	1	16	1	NaN	0	16	132	NaN	0.5	875.756497029215	k	NaN	2	NaN	132
10	1	17	0	1	0	17	5	12	1	1033.54023501743	j	1	1	1	5
10	1	18	1	NaN	0	18	133	NaN	0.25	1168.88945200481	j	NaN	1	NaN	133
10	1	19	0	0.75	0	19	127	12	0.75	1014.66124202125	k	1	2	1	127
10	1	20	0	0.25	0	20	6	14	0.25	1557.08070693072	j	1	1	2	6
10	1	21	0	0.25	0	21	128	11	0.25	1157.37802803051	j	1	1	2	128
10	1	22	0	0.75	0	22	129	11	0.75	764.353235019371	j	1	1	2	129
10	1	23	1	NaN	0	23	134	NaN	0	850.568715948611	k	NaN	2	NaN	23
10	1	24	0	1	0	24	12	12	1	719.936309033073	j	1	1	1	12
10	1	25	1	NaN	0	25	135	NaN	0.5	1109.81202102266	j	NaN	1	NaN	135
10	1	26	0	0.5	0	26	132	10	0.5	1132.98596104141	k	1	2	2	132
10	1	27	0	0.75	0	27	14	13	0.5	1707.64287700877	j	0	1	1	27
10	1	28	1	NaN	0	28	136	NaN	1	1176.84740701225	j	NaN	1	NaN	136
10	1	29	0	0.25	0	29	133	11	0.25	822.998755960725	k	1	2	1	133
10	1	30	1	NaN	0	30	137	NaN	0.5	1215.52391198929	j	NaN	1	NaN	137
10	1	31	1	NaN	0	31	138	NaN	0	1099.73092004657	j	NaN	1	NaN	31
10	1	32	0	0	0	32	23	9	0.75	977.688601939008	j	0	1	2	32
10	1	33	1	NaN	0	33	139	NaN	0.75	970.360260922462	k	NaN	2	NaN	33
10	1	34	0	0.5	0	34	135	9	1	1209.52945901081	k	0	2	1	34
10	1	35	1	NaN	0	35	140	NaN	0	1319.38065693248	j	NaN	1	NaN	35
10	1	36	0	1	0	36	136	8	0.5	1326.03512797505	k	0	2	1	36
10	1	37	0	0.5	0	37	137	7	0	1020.02690301742	k	0	2	1	37
10	1	38	1	NaN	0	38	141	NaN	0.25	1059.56385401078	j	NaN	1	NaN	141
10	1	39	1	NaN	0	39	142	NaN	1	1016.67225500569	j	NaN	1	NaN	142
10	1	40	0	0	0	40	31	9	0	1231.58477898687	j	1	1	1	31
10	1	41	0	0.75	0	41	33	8	0.75	1077.20728998538	j	1	1	2	33
10	1	42	1	NaN	0	42	143	NaN	0.75	1099.20741198584	j	NaN	1	NaN	143
10	1	43	0	0	0	43	35	8	0.25	849.794907961041	j	0	1	1	43
10	1	44	1	NaN	0	44	144	NaN	0.5	944.157449994236	k	NaN	2	NaN	144
10	1	45	0	0.25	0	45	141	7	0.25	1405.46180296224	j	1	1	1	141
10	1	46	1	NaN	0	46	145	NaN	0.5	1275.76579595916	k	NaN	2	NaN	145
10	1	47	0	1	0	47	142	8	1	824.733085930347	k	1	2	1	142
10	1	48	1	NaN	0	48	146	NaN	1	1465.5188859906	j	NaN	1	NaN	48
10	1	49	0	0.75	0	49	143	7	0.75	1759.81589395087	k	1	2	1	143
10	1	50	1	NaN	0	50	147	NaN	1	1671.94829205982	k	NaN	2	NaN	147
10	1	51	1	NaN	0	51	148	NaN	0.75	931.553151924163	k	NaN	2	NaN	148
10	1	52	0	0.5	0	52	144	8	0	1794.99881097581	k	0	2	2	52
10	1	53	0	0.5	0	53	145	7	0	1026.69789490756	k	0	2	2	53
10	1	54	1	NaN	0	54	149	NaN	0.75	1088.80926505663	j	NaN	1	NaN	149
10	1	55	0	1	0	55	48	7	1	968.755642068572	k	1	2	1	48
10	1	56	1	NaN	0	56	150	NaN	0	942.942916066386	j	NaN	1	NaN	56
10	1	57	0	1	0	57	147	7	1	651.070909923874	j	1	1	2	147
10	1	58	1	NaN	0	58	151	NaN	0.25	960.920018027537	j	NaN	1	NaN	151
10	1	59	1	NaN	0	59	152	NaN	1	1109.759959043	k	NaN	2	NaN	152
10	1	60	0	0.75	0	60	148	9	0.5	1195.15719404444	j	0	1	2	60
10	1	61	1	NaN	0	61	153	NaN	1	1025.18931298982	j	NaN	1	NaN	61
10	1	62	1	NaN	0	62	154	NaN	0	1096.8660840299	j	NaN	1	NaN	62
10	1	63	0	0.75	0	63	149	9	0.25	1030.95306607429	j	0	1	1	63
10	1	64	1	NaN	0	64	155	NaN	0	964.547025039792	k	NaN	2	NaN	64
10	1	65	0	0	0	65	56	9	0	1634.20095900074	j	1	1	1	56
10	1	66	1	NaN	0	66	156	NaN	0.75	1011.51353109162	k	NaN	2	NaN	66
10	1	67	1	NaN	0	67	157	NaN	0.25	1247.68201401457	k	NaN	2	NaN	67
10	1	68	1	NaN	0	68	158	NaN	0	1520.0634659268	j	NaN	1	NaN	158
10	1	69	0	0.25	0	69	151	11	0.75	1030.24471295066	j	0	1	1	69
10	1	70	0	1	0	70	152	11	0	1356.51340102777	k	0	2	2	70
10	1	71	0	1	0	71	61	10	1	723.609296954237	j	1	1	1	61
10	1	72	1	NaN	0	72	159	NaN	0.75	1259.69225203153	k	NaN	2	NaN	72
10	1	73	0	0	0	73	62	11	1	1447.80572399031	j	0	1	1	73
10	1	74	0	0	0	74	64	10	0.75	727.794817998074	k	0	2	2	74
10	1	75	0	0.75	0	75	66	9	0	822.475178050809	k	0	2	2	75
10	1	76	1	NaN	0	76	160	NaN	0.25	966.136486968026	j	NaN	1	NaN	160
10	1	77	0	0.25	0	77	67	10	0.5	1283.50961592514	j	0	1	2	77
10	1	78	1	NaN	0	78	161	NaN	0	1182.43594595697	j	NaN	1	NaN	161
10	1	79	1	NaN	0	79	162	NaN	0.5	1197.46564188972	k	NaN	2	NaN	162
10	1	80	0	0	0	80	158	12	0.25	882.538365083747	j	0	1	1	80
10	1	81	0	0.75	0	81	72	9	0.25	1655.06526292302	j	0	1	2	81
10	1	82	1	NaN	0	82	163	NaN	0.5	996.468160999939	j	NaN	1	NaN	82
10	1	83	0	0.25	0	83	160	7	0.25	1018.25030008331	j	0	1	1	83
10	1	84	1	NaN	0	84	164	NaN	0.75	1023.63955404144	k	NaN	2	NaN	84
10	1	85	1	NaN	0	85	165	NaN	0	1261.23264001217	k	NaN	2	NaN	165
10	1	86	1	NaN	0	86	166	NaN	0	1260.21376403514	j	NaN	1	NaN	86
10	1	87	0	0	0	87	161	9	0.25	1657.94884390198	j	0	1	1	87
10	1	88	1	NaN	0	88	167	NaN	0.25	1257.34110805206	j	NaN	1	NaN	88
10	1	89	0	0.5	0	89	162	10	0.75	1102.90886298753	j	0	1	2	89
10	1	90	0	0.5	0	90	82	8	0.5	1284.76478601806	k	0	2	1	90
10	2	1	1	NaN	0	181	301	NaN	0.75	947.780187940225	j	NaN	1	NaN	301
10	2	2	1	NaN	0	182	302	NaN	0.25	1920.19937199075	j	NaN	1	NaN	182
10	2	3	1	NaN	0	183	303	NaN	1	1472.68674091902	k	NaN	2	NaN	303
10	2	4	1	NaN	0	184	304	NaN	0.5	1133.94909293856	j	NaN	1	NaN	304
10	2	5	1	NaN	0	185	305	NaN	0.25	940.751006943174	k	NaN	2	NaN	185
10	2	6	1	NaN	0	186	306	NaN	0.25	891.060612979345	k	NaN	2	NaN	306
10	2	7	1	NaN	0	187	307	NaN	0	897.803841973655	j	NaN	1	NaN	307
10	2	8	1	NaN	0	188	308	NaN	0.75	696.269623935223	j	NaN	1	NaN	308
10	2	9	0	0.75	0	189	301	8	0.75	766.049713944085	k	1	2	1	301
10	2	10	0	0.25	0	190	182	8	0	1500.07546599954	j	0	1	1	190
10	2	11	0	1	0	191	303	8	1	642.784334952012	j	1	1	2	303
10	2	12	1	NaN	0	192	309	NaN	0.25	903.550907038152	j	NaN	1	NaN	309
10	2	13	1	NaN	0	193	310	NaN	0.25	1158.27680798247	j	NaN	1	NaN	193
10	2	14	0	0.5	0	194	304	10	0.5	1355.69696105085	k	0	2	1	194
10	2	15	1	NaN	0	195	311	NaN	1	969.064506003633	j	NaN	1	NaN	311
10	2	16	1	NaN	0	196	312	NaN	0	1517.23757490981	k	NaN	2	NaN	196
10	2	17	0	0.25	0	197	185	12	1	885.029785102233	k	0	2	2	197
10	2	18	1	NaN	0	198	313	NaN	0.25	1146.22224506456	j	NaN	1	NaN	198
10	2	19	0	0.25	0	199	306	13	1	1104.54053292051	k	0	2	2	199
10	2	20	0	0	0	200	307	13	0.25	918.647199054249	k	0	2	1	200
10	2	21	0	0.75	0	201	308	13	0.75	726.346781942993	j	1	1	1	308
10	2	22	1	NaN	0	202	314	NaN	0	1123.76408290584	j	NaN	1	NaN	314
10	2	23	0	0.25	0	203	309	11	0.75	1051.53724201955	k	0	2	1	203
10	2	24	1	NaN	0	204	315	NaN	0	978.589022997767	k	NaN	2	NaN	315
10	2	25	1	NaN	0	205	316	NaN	1	1247.25669098552	k	NaN	2	NaN	316
10	2	26	1	NaN	0	206	317	NaN	0	1228.81717805285	k	NaN	2	NaN	206
10	2	27	0	0.25	0	207	193	14	0.25	860.883018001914	j	0	1	1	207
10	2	28	0	0.25	0	208	198	10	0.25	771.563081070781	k	1	2	1	198
10	2	29	0	1	0	209	311	14	0.75	1660.14425002504	k	0	2	1	209
10	2	30	1	NaN	0	210	318	NaN	1	848.569063004106	j	NaN	1	NaN	210
10	2	31	0	0	0	211	196	15	0.75	1118.97707299795	j	0	1	2	211
10	2	32	0	0	0	212	314	10	1	692.447245004587	k	0	2	1	212
10	2	33	0	0	0	213	315	9	0	787.717882078141	k	0	2	2	213
10	2	34	1	NaN	0	214	319	NaN	1	1481.88904300332	j	NaN	1	NaN	319
10	2	35	0	1	0	215	316	10	1	585.921022924595	k	1	2	2	316
10	2	36	1	NaN	0	216	320	NaN	0.25	1319.28477401379	j	NaN	1	NaN	320
10	2	37	1	NaN	0	217	321	NaN	0.25	981.83325806167	j	NaN	1	NaN	217
10	2	38	0	0	0	218	206	12	0	676.199194975197	k	0	2	2	218
10	2	39	0	1	0	219	210	9	1	604.159886948764	j	1	1	1	210
10	2	40	1	NaN	0	220	322	NaN	0.25	1339.03450693469	j	NaN	1	NaN	322
10	2	41	1	NaN	0	221	323	NaN	0.25	601.075334008783	k	NaN	2	NaN	221
10	2	42	1	NaN	0	222	324	NaN	0.5	894.824107992463	j	NaN	1	NaN	324
10	2	43	1	NaN	0	223	325	NaN	0.5	1014.54032899346	j	NaN	1	NaN	223
10	2	44	0	1	0	224	319	10	1	669.027020921931	k	1	2	1	319
10	2	45	1	NaN	0	225	326	NaN	0.5	939.046870917082	j	NaN	1	NaN	225
10	2	46	0	0.25	0	226	320	10	0.5	922.219590982422	k	0	2	1	226
10	2	47	0	0.25	0	227	217	10	0.75	1666.67443199549	k	0	2	1	227
10	2	48	0	0.25	0	228	322	8	0	1257.81894708052	k	0	2	1	228
10	2	49	0	0.25	0	229	221	8	0.75	1256.30013598129	j	0	1	2	229
10	2	50	1	NaN	0	230	327	NaN	0.25	990.5356640229	k	NaN	2	NaN	230
10	2	51	1	NaN	0	231	328	NaN	0.75	788.725901977159	k	NaN	2	NaN	328
10	2	52	0	0.5	0	232	324	10	0.75	859.031936968677	k	0	2	1	232
10	2	53	1	NaN	0	233	329	NaN	0.25	1195.70398994256	k	NaN	2	NaN	329
10	2	54	1	NaN	0	234	330	NaN	0.5	842.056066961959	k	NaN	2	NaN	330
10	2	55	1	NaN	0	235	331	NaN	0.75	1720.48435092438	j	NaN	1	NaN	235
10	2	56	1	NaN	0	236	332	NaN	1	1142.7540120203	j	NaN	1	NaN	236
10	2	57	0	0.5	0	237	223	14	0.75	1076.79870398715	j	0	1	1	237
10	2	58	0	0.5	0	238	225	13	1	821.387829026207	k	0	2	1	238
10	2	59	0	0.25	0	239	230	9	0.5	819.950293982401	k	0	2	2	239
10	2	60	0	0.75	0	240	328	9	0.5	915.144654922187	j	0	1	2	240
10	2	61	1	NaN	0	241	333	NaN	1	1113.61035006121	j	NaN	1	NaN	333
10	2	62	0	0.25	0	242	329	9	0.5	728.080529952422	k	0	2	2	242
10	2	63	0	0.5	0	243	330	9	0.75	799.830671050586	k	0	2	2	243
10	2	64	1	NaN	0	244	334	NaN	0.75	2038.95466099493	k	NaN	2	NaN	334
10	2	65	1	NaN	0	245	335	NaN	0.5	850.707342033274	k	NaN	2	NaN	335
10	2	66	1	NaN	0	246	336	NaN	1	1241.64149106946	j	NaN	1	NaN	336
10	2	67	1	NaN	0	247	337	NaN	0.75	1465.05809796508	j	NaN	1	NaN	247
10	2	68	0	0.75	0	248	235	13	0.5	1320.07102796342	j	0	1	1	248
10	2	69	0	1	0	249	236	13	1	902.173963957466	j	1	1	1	236
10	2	70	1	NaN	0	250	338	NaN	0.5	1229.71884999424	j	NaN	1	NaN	250
10	2	71	1	NaN	0	251	339	NaN	0	907.489814097062	j	NaN	1	NaN	339
10	2	72	1	NaN	0	252	340	NaN	0.25	1138.43361299951	k	NaN	2	NaN	340
10	2	73	0	1	0	253	333	12	1	688.290714053437	j	1	1	1	333
10	2	74	0	0.75	0	254	334	10	0.75	1007.75655498728	k	1	2	2	334
10	2	75	0	0.5	0	255	335	10	0	1023.7450649729	k	0	2	2	255
10	2	76	1	NaN	0	256	341	NaN	0	1182.9775540391	j	NaN	1	NaN	256
10	2	77	1	NaN	0	257	342	NaN	1	918.861092999578	k	NaN	2	NaN	257
10	2	78	1	NaN	0	258	343	NaN	0.5	1254.07360203099	j	NaN	1	NaN	258
10	2	79	0	1	0	259	336	13	1	707.629521028139	j	1	1	1	336
10	2	80	0	0.75	0	260	247	13	0.25	1217.7893029293	j	0	1	1	260
10	2	81	1	NaN	0	261	344	NaN	0	1231.9081639871	j	NaN	1	NaN	261
10	2	82	0	0.25	0	262	340	10	1	1350.76755692717	j	0	1	2	262
10	2	83	0	0.5	0	263	250	13	0.5	907.72623103112	k	1	2	1	250
10	2	84	1	NaN	0	264	345	NaN	0.25	1217.49377402011	j	NaN	1	NaN	345
10	2	85	0	0	0	265	339	14	0	743.673557997681	k	0	2	1	265
10	2	86	1	NaN	0	266	346	NaN	0	1544.35821902007	j	NaN	1	NaN	266
10	2	87	1	NaN	0	267	347	NaN	0.5	847.361990017816	j	NaN	1	NaN	267
10	2	88	0	0	0	268	256	12	1	628.609046922065	k	0	2	1	268
10	2	89	1	NaN	0	269	348	NaN	1	756.208749022335	j	NaN	1	NaN	269
10	2	90	1	NaN	0	270	349	NaN	0	937.321575940587	k	NaN	2	NaN	270
11	1	1	1	NaN	0	1	121	NaN	0.5	836.221899022348	j	NaN	1	NaN	1
11	1	2	1	NaN	0	2	122	NaN	0.75	1159.76473107003	k	NaN	2	NaN	122
11	1	3	1	NaN	0	3	123	NaN	0.75	677.42492700927	j	NaN	1	NaN	3
11	1	4	1	NaN	0	4	124	NaN	0.25	1107.39749099594	k	NaN	2	NaN	4
11	1	5	1	NaN	0	5	125	NaN	0.5	840.631432947703	k	NaN	2	NaN	5
11	1	6	1	NaN	0	6	126	NaN	0.75	966.691281995736	k	NaN	2	NaN	126
11	1	7	1	NaN	0	7	127	NaN	0	923.146589077078	j	NaN	1	NaN	7
11	1	8	0	0.5	0	8	1	7	0.5	865.093003027141	k	1	2	1	1
11	1	9	0	0.75	0	9	122	7	0.75	1264.0227379743	k	0	2	2	9
11	1	10	0	0.75	0	10	3	7	1	1269.58132407162	k	0	2	1	10
11	1	11	1	NaN	0	11	128	NaN	0.25	1083.09207903221	k	NaN	2	NaN	11
11	1	12	1	NaN	0	12	129	NaN	1	1080.10795596056	j	NaN	1	NaN	12
11	1	13	0	0.25	0	13	4	9	0	685.437056003138	k	0	2	2	13
11	1	14	1	NaN	0	14	130	NaN	0	708.759122062474	k	NaN	2	NaN	14
11	1	15	1	NaN	0	15	131	NaN	0.75	1168.31492597703	k	NaN	2	NaN	131
11	1	16	1	NaN	0	16	132	NaN	0.25	1197.94223899953	j	NaN	1	NaN	132
11	1	17	0	0	0	17	7	10	0.5	877.465827972628	k	0	2	1	17
11	1	18	0	0.5	0	18	5	13	1	835.669843945652	j	0	1	2	18
11	1	19	0	0.75	0	19	126	13	0.5	801.6245320905	j	0	1	2	19
11	1	20	0	0.25	0	20	11	9	0.75	935.5332829291	j	0	1	2	20
11	1	21	1	NaN	0	21	133	NaN	1	980.765113956295	k	NaN	2	NaN	21
11	1	22	0	1	0	22	12	10	1	1283.04440295324	k	1	2	1	12
11	1	23	1	NaN	0	23	134	NaN	0.75	816.536026075482	j	NaN	1	NaN	23
11	1	24	1	NaN	0	24	135	NaN	0.75	998.14497702755	k	NaN	2	NaN	135
11	1	25	0	0	0	25	14	11	0.75	885.40837704204	k	0	2	2	25
11	1	26	0	0.25	0	26	132	10	0.25	781.33410110604	j	1	1	1	132
11	1	27	1	NaN	0	27	136	NaN	0	1057.75712104514	k	NaN	2	NaN	136
11	1	28	0	0.75	0	28	131	13	0.75	905.274318996817	j	1	1	2	131
11	1	29	1	NaN	0	29	137	NaN	0.75	1279.41766602453	k	NaN	2	NaN	137
11	1	30	0	1	0	30	21	9	1	1125.01262093429	k	0	2	2	30
11	1	31	1	NaN	0	31	138	NaN	0.75	1440.91144599952	k	NaN	2	NaN	31
11	1	32	0	0.75	0	32	23	9	1	831.723635899834	j	0	1	1	32
11	1	33	0	0.75	0	33	135	9	0	1228.78625406884	j	0	1	2	33
11	1	34	1	NaN	0	34	139	NaN	1	1049.23661297653	k	NaN	2	NaN	139
11	1	35	0	0	0	35	136	8	0.75	796.963348984718	j	0	1	2	35
11	1	36	1	NaN	0	36	140	NaN	1	1490.76131894253	k	NaN	2	NaN	140
11	1	37	0	0.75	0	37	137	8	0.75	1009.69260104466	k	1	2	2	137
11	1	38	1	NaN	0	38	141	NaN	0.25	1447.27043109015	k	NaN	2	NaN	141
11	1	39	0	0.75	0	39	31	8	0.25	1092.11739490274	j	0	1	2	39
11	1	40	1	NaN	0	40	142	NaN	0	1762.83370400779	k	NaN	2	NaN	40
11	1	41	0	1	0	41	139	7	1	954.989612917416	j	1	1	2	139
11	1	42	1	NaN	0	42	143	NaN	1	1119.68427302781	j	NaN	1	NaN	143
11	1	43	1	NaN	0	43	144	NaN	0.25	1072.75586505421	k	NaN	2	NaN	43
11	1	44	1	NaN	0	44	145	NaN	0.25	1014.4814880332	j	NaN	1	NaN	145
11	1	45	1	NaN	0	45	146	NaN	0.5	982.536113006063	j	NaN	1	NaN	146
11	1	46	1	NaN	0	46	147	NaN	1	1036.82660590857	j	NaN	1	NaN	147
11	1	47	0	1	0	47	140	11	1	747.1989429323	k	1	2	2	140
11	1	48	1	NaN	0	48	148	NaN	0.5	1168.71592693496	k	NaN	2	NaN	48
11	1	49	0	0.25	0	49	141	11	0.75	1245.65553304274	j	0	1	2	49
11	1	50	0	0	0	50	40	10	0.5	860.061041079462	k	0	2	2	50
11	1	51	1	NaN	0	51	149	NaN	0.5	1321.12910796423	j	NaN	1	NaN	149
11	1	52	0	1	0	52	143	10	1	1051.47389194462	j	1	1	1	143
11	1	53	1	NaN	0	53	150	NaN	0.25	1016.13410608843	k	NaN	2	NaN	53
11	1	54	0	0.25	0	54	145	10	1	1077.2186369868	k	0	2	1	54
